timestamp_us,ax,ay,az,qw,qx,qy,qz,vx,vy,px,py
1776792.6194205726,2.26,-0.65,8.96,0.0,2.26,-0.65,8.96,0.0,0.0,0.0,0.0
1776792.6197460692,1.61,-1.53,8.27,0.0,1.61,-1.53,8.27,0.0005240494315512447,-0.0004980097082443513,1.7057627745912071e-07,-1.6210043758537581e-07
1776792.6200561589,1.11,-1.27,8.58,0.0,1.11,-1.27,8.58,0.0008682489674538404,-0.0008918235916644298,4.398113149776022e-07,-4.386457225924725e-07
1776792.6204031084,1.11,-0.69,9.2,0.0,1.11,-0.69,9.2,0.0012533629755489524,-0.001131218785885716,8.746650439070412e-07,-8.311215790473718e-07
1776792.6207234263,1.23,0.46,10.0,0.0,1.23,0.46,10.0,0.00164735401980579,-0.000983872541692101,1.4023420605932036e-06,-1.1462735872724926e-06
1776792.621028399,1.46,0.96,10.27,0.0,1.46,0.96,10.27,0.0020926142390817483,-0.0006910986988805212,2.040532385903832e-06,-1.3570398600155512e-06
1776792.6213846817,1.42,0.65,10.04,0.0,1.42,0.65,10.04,0.002598535493016256,-0.00045951502630487144,2.9663452978898142e-06,-1.520757056008443e-06
1776792.6215222918,1.15,0.42,9.5,0.0,1.15,0.42,9.5,0.0027567871403880546,-0.00040171877248212825,3.3457071295592056e-06,-1.5760376277697243e-06
1776792.6216002349,0.92,0.54,9.54,0.0,0.92,0.54,9.54,0.0028284947783686325,-0.0003596295067109183,3.566168737817053e-06,-1.60406826089403e-06
1776792.6217022112,0.73,1.04,9.27,0.0,0.73,1.04,9.27,0.002902937498874974,-0.0002535741240717463,3.862199648606264e-06,-1.629926819313089e-06
1776792.6217026138,0.88,1.57,8.81,0.0,0.88,1.57,8.81,0.002903291755355906,-0.0002529420983046286,3.863368409879414e-06,-1.6300286447422084e-06
1776792.6218764584,1.23,2.18,8.81,0.0,1.23,2.18,8.81,0.0031171206501312693,0.00012603919487446774,4.405263095650978e-06,-1.6081174075565306e-06
1776792.6221927805,1.11,2.41,8.08,0.0,1.11,2.41,8.08,0.003468238161876813,0.0008883754140697464,5.50234341415469e-06,-1.3271046463996972e-06
1776792.6223969497,1.3,2.61,7.74,0.0,1.3,2.61,7.74,0.003733658110722916,0.0014212570036761553,6.264641371660005e-06,-1.0369277531590132e-06
1776792.622610219,1.19,2.84,7.7,0.0,1.19,2.84,7.7,0.003987448669504388,0.0020269420347176492,7.1150420657322465e-06,-6.046430879416588e-07
1776792.622782799,1.23,2.99,7.66,0.0,1.23,2.99,7.66,0.004199721938930465,0.0025429559173062405,7.83982963212021e-06,-1.6578002568719876e-07
1776792.6229502636,1.19,3.14,7.97,0.0,1.19,3.14,7.97,0.004399004818405965,0.0030687947757542075,8.576507234673621e-06,3.4813447803690425e-07
1776792.6231484103,0.73,2.49,7.74,0.0,0.73,2.49,7.74,0.004543651978019634,0.0035621802927926142,9.476817307130564e-06,1.0539690826728483e-06
1776792.623376982,0.61,2.45,7.62,0.0,0.61,2.45,7.62,0.0046830807183869255,0.004122180971316991,1.0547237054020808e-05,1.996183017749494e-06
1776792.623605935,0.65,2.3,7.51,0.0,0.65,2.3,7.51,0.004831900070421404,0.00464877252466977,1.1653514342598452e-05,3.0605327329449494e-06
1776792.6237937198,1.15,2.57,7.47,0.0,1.15,2.57,7.47,0.005047852704301484,0.005131379715166981,1.2601424852974612e-05,4.024128354622443e-06
1776792.623951103,1.15,2.53,7.62,0.0,1.15,2.53,7.62,0.005228843465447437,0.005529559389688071,1.3424357338821878e-05,4.894388496136683e-06
1776792.6241696104,0.88,2.3,7.85,0.0,0.88,2.3,7.85,0.005421129949390898,0.006032126336358481,1.4608914176286623e-05,6.212452546047059e-06
1776792.624388063,1.04,2.26,8.04,0.0,1.04,2.26,8.04,0.005648320708423859,0.006525829331949356,1.5842804819563958e-05,7.638037276090482e-06
1776792.6245963816,0.8,1.95,7.97,0.0,0.8,1.95,7.97,0.005814975481480367,0.006932050341274589,1.7054171593558037e-05,9.082111371642232e-06
1776792.6248145597,0.73,2.03,8.08,0.0,0.73,2.03,8.08,0.005974245527759203,0.007374951976817103,1.8357621404088624e-05,1.0691164717740644e-05
1776792.6250073616,0.61,2.22,8.5,0.0,0.61,2.22,8.5,0.006091854707337924,0.007802972269710149,1.9532142771699748e-05,1.2195592860226096e-05
1776792.6252325855,0.3,2.07,8.66,0.0,0.3,2.07,8.66,0.006159421857446443,0.008269185605458914,2.0919391375778947e-05,1.4058010543823508e-05
1776792.6254615954,0.15,2.18,9.04,0.0,0.15,2.18,9.04,0.006193773341365171,0.008768427171744414,2.2337826744659894e-05,1.6066067110374856e-05
1776792.625702991,0.04,2.26,9.0,0.0,0.04,2.26,9.0,0.006203429163433623,0.009313981118611994,2.3835306950069052e-05,1.8314420721131024e-05
1776792.625767636,0.15,2.8,8.89,0.0,0.15,2.8,8.89,0.006213125942740601,0.009494987665675584,2.4236955690557155e-05,1.892822605390792e-05
1776792.625859658,0.42,3.33,8.62,0.0,0.42,3.33,8.62,0.006251775135751825,0.009801420553121718,2.4812255842662975e-05,1.983017127948359e-05
1776792.6258601083,0.38,3.18,8.31,0.0,0.38,3.18,8.31,0.0062519462476484594,0.009802852489519866,2.4815071059452683e-05,1.983458544969913e-05
1776792.6258675116,0.42,3.22,8.12,0.0,0.42,3.22,8.12,0.006255055640358489,0.009826691166963431,2.4861379212807356e-05,1.9907335549409304e-05
1776792.6258679095,0.15,3.26,8.08,0.0,0.15,3.26,8.08,0.00625511532649399,0.009827988345641647,2.4863868170547018e-05,1.991124618036995e-05
1776792.6258681796,0.11,3.68,8.27,0.0,0.11,3.68,8.27,0.006255145035684121,0.009828982253093276,2.4865557582302995e-05,1.9913900826756712e-05
1776792.6258688923,0.11,3.87,8.5,0.0,0.11,3.87,8.5,0.006255223432090146,0.009831740381196144,2.4870015646266242e-05,1.99209078550372e-05
1776792.6258692862,-0.08,3.68,8.43,0.0,-0.08,3.68,8.43,0.006255191916134221,0.009833190115168694,2.4872479875675382e-05,1.9924781634865594e-05
1776792.6258695903,-0.23,3.33,8.46,0.0,-0.23,3.33,8.46,0.00625512197846548,0.009834202690981331,2.4874381913279135e-05,1.992777198795312e-05
1776792.6258698648,-0.61,2.76,8.23,0.0,-0.61,2.76,8.23,0.0062549545289948705,0.009834960331209007,2.487609894413908e-05,1.9930471756643164e-05
1776792.625870117,-0.42,2.76,8.31,0.0,-0.42,2.76,8.31,0.006254848623648298,0.009835656280629339,2.4877676139165855e-05,1.9932951872326896e-05
1776792.6258703624,-0.46,2.68,8.08,0.0,-0.46,2.68,8.08,0.006254735738039029,0.00983631396200508,2.4879211073197606e-05,1.9935365738184643e-05
1776792.625876554,-0.54,2.84,8.35,0.0,-0.54,2.84,8.35,0.006251392238773418,0.009853898291476072,2.4917917601640913e-05,1.99963777783716e-05
1776792.6258769692,-0.15,3.18,8.7,0.0,-0.15,3.18,8.7,0.006251329968217773,0.00985521842725575,2.49205127602452e-05,2.0000469044554737e-05
1776792.6258772665,-0.34,2.87,8.81,0.0,-0.34,2.87,8.81,0.006251228877808912,0.009856071749236436,2.4922371405195626e-05,2.000339949844562e-05
1776792.6258775243,-0.5,2.57,9.12,0.0,-0.5,2.57,9.12,0.006251100006047649,0.009856734150089325,2.492398258573084e-05,2.0005940007826056e-05
1776792.625877775,-0.73,1.68,9.31,0.0,-0.73,1.68,9.31,0.006250916952267302,0.009857155424542727,2.4925550056934604e-05,2.000841177435199e-05
1776792.625894765,-0.77,1.3,9.54,0.0,-0.77,1.3,9.54,0.00623783474089579,0.009879242274910213,2.5031530151195586e-05,2.0176258963482827e-05
1776792.6259120102,-0.77,1.38,9.61,0.0,-0.77,1.38,9.61,0.006224555859807891,0.009903040789067745,2.5138874485075294e-05,2.0347039873933016e-05
1776792.6259132181,-0.61,1.72,9.77,0.0,-0.61,1.72,9.77,0.006223819025326533,0.0099051184207201,2.5146392394032007e-05,2.035900451785814e-05
1776792.6259141895,-0.34,2.26,10.0,0.0,-0.34,2.26,10.0,0.0062234887597151225,0.009907313715666532,2.5152437700856512e-05,2.0368628179686778e-05
1776792.6262283237,-0.42,2.03,10.0,0.0,-0.42,2.03,10.0,0.006091552407015126,0.010545006087049833,2.7066002479100443e-05,2.3681174947126304e-05
1776792.626670617,-0.27,1.91,10.27,0.0,-0.27,1.91,10.27,0.005972133232280625,0.011389786174986481,2.9707436634668785e-05,2.8718800374605332e-05
1776792.6271857244,-0.46,1.57,10.19,0.0,-0.46,1.57,10.19,0.005735183767974387,0.012198504998814289,3.2661672985797804e-05,3.500234216766181e-05
1776792.6274027796,-0.19,1.46,10.3,0.0,-0.19,1.46,10.3,0.005693943279329698,0.012515405595768216,3.38975730024015e-05,3.771887607479844e-05
1776792.6274034705,-0.11,1.34,10.23,0.0,-0.11,1.34,10.23,0.005693867290392529,0.012516331279184643,3.3901506374435865e-05,3.772752246308175e-05
1776792.6274038842,-0.11,0.69,9.81,0.0,-0.11,0.69,9.81,0.005693821778986614,0.012516616759821747,3.3903862136564874e-05,3.773270108877301e-05
1776792.627404391,0.0,0.65,9.61,0.0,0.0,0.65,9.61,0.005693821778986614,0.012516946226824048,3.3906748177169744e-05,3.77390455822366e-05
1776792.6274104933,0.27,0.96,9.2,0.0,0.27,0.96,9.2,0.005695469388738285,0.012522804394829992,3.394150340274468e-05,3.7815462969789184e-05
1776792.6274168976,0.88,1.53,9.35,0.0,0.88,1.53,9.35,0.005701105119660507,0.012532602881547037,3.397801464639662e-05,3.78957247625113e-05
1776792.6274173164,0.96,1.15,9.35,0.0,0.96,1.15,9.35,0.005701507227495323,0.01253308457322416,3.398040279298666e-05,3.7900974399491825e-05
1776792.6274278788,0.92,0.69,9.12,0.0,0.92,0.69,9.12,0.005711224600672732,0.012540372603107218,3.404072681553529e-05,3.803343035641373e-05
1776792.6277392998,0.84,0.0,8.96,0.0,0.84,0.0,8.96,0.0059728182386607044,0.012540372603107218,3.590078782993072e-05,4.193876570280837e-05
1776792.6281119185,0.73,-0.96,8.89,0.0,0.73,-0.96,8.89,0.006244829867500818,0.01218265868024899,3.822772802731198e-05,4.647825177296966e-05
1776792.628508532,0.8,-1.07,9.08,0.0,0.8,-1.07,9.08,0.006562120665330439,0.011758282238151861,4.0830353654008205e-05,5.114174521353109e-05
1776792.6288385873,0.73,-0.96,9.46,0.0,0.73,-0.96,9.46,0.006803061082027853,0.011441429087426496,4.307574046485991e-05,5.491805027098101e-05
1776792.6291817706,1.0,-0.38,9.81,0.0,1.0,-0.38,9.81,0.007146244370378556,0.01131101943785323,4.552821210724411e-05,5.879980311626218e-05
1776792.6295328634,1.07,-0.11,10.0,0.0,1.07,-0.11,10.0,0.007521913642995057,0.01127239923225714,4.8169101665139556e-05,6.275746107908918e-05
1776792.6298630347,1.11,-0.08,10.34,0.0,1.11,-0.08,10.34,0.007888403802644462,0.011245985527057183,5.077362632190543e-05,6.647056290902257e-05
1776792.6302323812,1.0,-0.34,10.04,0.0,1.0,-0.34,10.04,0.008257750270422552,0.011120407728012633,5.382359721607954e-05,7.057784622361618e-05
1776792.6304761204,0.88,-0.84,10.04,0.0,0.88,-0.84,10.04,0.008472240788396451,0.01091566677903755,5.58886146196054e-05,7.323842238437328e-05
1776792.6306688949,1.11,-1.04,9.77,0.0,1.11,-1.04,9.77,0.008686220438685277,0.010715181340929105,5.75630960716788e-05,7.530403567816905e-05
1776792.6308413774,1.11,-1.19,9.65,0.0,1.11,-1.19,9.65,0.00887767609208823,0.01050992708187549,5.90943404652919e-05,7.711681491841939e-05
1776792.630988992,1.3,-0.8,10.07,0.0,1.3,-0.8,10.07,0.009069575108587748,0.010391835379414245,6.0433142421758444e-05,7.86508018329844e-05
1776792.6313087854,1.23,-0.57,10.27,0.0,1.23,-0.57,10.27,0.009462920934893204,0.010209553167223915,6.34593216529769e-05,8.191574909052188e-05
1776792.6315016781,0.65,0.46,14.48,0.0,0.65,0.46,14.48,0.009588301214389526,0.010298283826559762,6.530883532398456e-05,8.390221325130097e-05
1776792.631674149,0.46,1.0,15.9,0.0,0.46,1.0,15.9,0.00966763784177603,0.010470754755660875,6.697622180476872e-05,8.570811405239967e-05
1776792.6318870953,0.15,-0.42,13.02,0.0,0.15,-0.42,13.02,0.009699579773005115,0.010381317348219439,6.904171053850438e-05,8.791877621776054e-05
1776792.6320898968,0.61,-0.77,10.3,0.0,0.61,-0.77,10.3,0.00982328871497886,0.010225160159170611,7.103388865921368e-05,8.999245448792955e-05
1776792.6323691565,1.3,-0.8,8.89,0.0,1.3,-0.8,8.89,0.010186326240655042,0.010001752451062187,7.387851840855049e-05,9.278554022812909e-05
1776792.6325777795,1.3,-0.61,8.54,0.0,1.3,-0.61,8.54,0.010457536152098327,0.009874492415692642,7.60602010652625e-05,9.484558654628869e-05
1776792.632775543,1.19,-0.61,8.31,0.0,1.19,-0.61,8.31,0.010692874782253049,0.009753856647294,7.817486199271752e-05,9.677454390939774e-05
1776792.6329936096,0.92,-0.11,8.46,0.0,0.92,-0.11,8.46,0.010893496072385449,0.009729869319125995,8.055036985803735e-05,9.889630362203116e-05
1776792.6332575432,1.04,0.8,9.23,0.0,1.04,0.8,9.23,0.011167986972723145,0.009941016165539607,8.349797639563584e-05,0.0001015200713889067
1776792.6334712964,0.61,0.61,9.23,0.0,0.61,0.61,9.23,0.011298376424238076,0.010071405617054534,8.591304050213684e-05,0.00010367286656004133
1776792.6336639978,0.46,0.19,9.31,0.0,0.46,0.19,9.31,0.01138701904565095,0.01010801887372507,8.810733445492991e-05,0.00010562069545190609
1776792.6338718908,0.23,-0.42,9.2,0.0,0.23,-0.42,9.2,0.011434834455139927,0.010020703778136505,9.048455746323933e-05,0.00010770393047155534
1776792.6340443431,0.15,-0.84,9.0,0.0,0.15,-0.84,9.0,0.011460702300537369,0.009875843843910825,9.246098196494876e-05,0.0001094070424830458
1776792.6343390336,0.27,-0.27,9.42,0.0,0.27,-0.27,9.42,0.011540268731769165,0.009796277412679029,9.586178936658864e-05,0.00011229391223520701
1776792.6345219132,0.15,-0.15,9.42,0.0,0.15,-0.15,9.42,0.011567700675223013,0.009768845469225181,9.797728610534704e-05,0.0001140804350120148
1776792.6346944058,0.3,0.0,9.58,0.0,0.3,0.0,9.58,0.011619448449928306,0.009768845469225181,9.998155477396914e-05,0.00011576548839358903
1776792.6348871326,0.19,-0.3,9.35,0.0,0.19,-0.3,9.35,0.01165606652852147,0.00971102745039387,0.00010222799035411944,0.00011763706295358325
1776792.6350798262,0.19,-0.46,9.31,0.0,0.19,-0.46,9.31,0.011692678325343868,0.009622388363350167,0.00010448109542336763,0.00011949123625729479
1776792.6353846428,0.11,-0.5,9.42,0.0,0.11,-0.5,9.42,0.01172620814293622,0.009469980101566747,0.00010805543742411865,0.00012237784267010154
1776792.6356896057,-0.27,-0.73,9.35,0.0,-0.27,-0.73,9.35,0.011643868139944964,0.00924735713051631,0.00011160638608142566,0.0001251979442026495
1776792.6360699073,-0.3,-0.8,9.65,0.0,-0.3,-0.8,9.65,0.011529777655377977,0.008943115838337684,0.00011599117914693128,0.0001285990256010983
1776792.6362775718,-0.65,-0.65,9.96,0.0,-0.65,-0.65,9.96,0.011394795766100276,0.008808133949059983,0.00011835747308607238,0.00013042816184949082
1776792.636277878,-0.77,-0.84,9.88,0.0,-0.77,-0.84,9.88,0.011394560013432045,0.008807876764331002,0.00011836096178467822,0.0001304308585773462
1776792.636278114,-1.11,-0.92,10.34,0.0,-1.11,-0.92,10.34,0.011394297953229387,0.00880765956128015,0.00011836365186758883,0.00013043293798009357
1776792.6362783378,-2.61,-0.46,13.1,0.0,-2.61,-0.46,13.1,0.011393713965080668,0.008807556636165816,0.00011836620121392044,0.00013043490867308005
1776792.636278558,-1.8,-1.68,9.31,0.0,-1.8,-1.68,9.31,0.011393317501060655,0.008807186603080469,0.00011836871068084142,0.00013043684852452766
1776792.6362787725,-1.91,-1.72,9.08,0.0,-1.91,-1.72,9.08,0.011392907926347097,0.008806817771401245,0.00011837115374209824,0.00013043873703231094
1776792.636278996,-2.03,-1.11,10.3,0.0,-2.03,-1.11,10.3,0.011392454185988745,0.008806569667067367,0.00011837370015404153,0.00013044070545402354
1776792.636279211,-1.65,-0.73,9.61,0.0,-1.65,-0.73,9.61,0.011392099596559992,0.00880641278810798,0.00011837614834682227,0.00013044259797576893
1776792.636279421,-1.57,-0.3,9.65,0.0,-1.57,-0.3,9.65,0.011391769875772288,0.008806349784135806,0.00011837854076932977,0.00013044444742582473
1776792.6362796298,-1.46,-0.04,9.61,0.0,-1.46,-0.04,9.61,0.011391464956104746,0.008806341430172311,0.00011838091986638952,0.00013044628662219537
1776792.636279844,-1.46,-0.34,9.46,0.0,-1.46,-0.34,9.46,0.01139115221798419,0.008806268600746977,0.00011838335989894816,0.00013044817296184696
1776792.636280058,-1.15,-0.08,9.61,0.0,-1.15,-0.08,9.61,0.011390906150918444,0.008806251483038055,0.0001183857972266462,0.00013045005724746667
1776792.6362803185,-0.84,0.34,9.54,0.0,-0.84,0.34,9.54,0.011390687299426635,0.00880634006578474,0.0001183887649277274,0.00013045235162920568
1776792.6362805204,-0.65,0.38,9.58,0.0,-0.65,0.38,9.58,0.011390556087717404,0.008806416774168598,0.00011839106427285566,0.00013045412932920127
1776792.6362807187,-0.38,0.38,9.61,0.0,-0.38,0.38,9.61,0.011390480706468215,0.008806492155417787,0.00011839332382197282,0.0001304558762880951
1776792.6362917707,-0.5,4.56,10.0,0.0,-0.5,4.56,10.0,0.011384954703971734,0.008856889298185693,0.00011851915039820577,0.00013055376267284076
1776792.6362920888,-0.57,4.25,10.27,0.0,-0.57,4.25,10.27,0.011384773417375973,0.008858240996487425,0.00011852277128735727,0.00013055658000679635
1776792.6362923123,-0.69,4.1,10.34,0.0,-0.69,4.1,10.34,0.011384619190357617,0.008859157417900847,0.00011852531594804256,0.00013055856018278725
1776792.6362925386,-0.65,3.87,10.42,0.0,-0.65,3.87,10.42,0.011384472087956957,0.008860033242963241,0.00011852789238369546,0.0001305605653091872
1776792.6362927712,-0.57,3.41,10.42,0.0,-0.57,3.41,10.42,0.011384339507203542,0.008860826401505607,0.00011853054035616741,0.00013056262631802967
1776792.636293002,-0.5,3.48,10.54,0.0,-0.5,3.48,10.54,0.011384224139619611,0.008861629359889763,0.00011853316709703524,0.00013056467100756755
1776792.6362932224,-0.5,3.26,10.57,0.0,-0.5,3.26,10.57,0.011384113894309841,0.008862348159309464,0.00011853567718736071,0.00013056662507220378
1776792.6363075436,-0.61,3.1,10.5,0.0,-0.61,3.1,10.5,0.011375377974472932,0.008906743817497034,0.00011869858602358946,0.00013069418015416694
1776792.636687349,-0.5,3.07,10.57,0.0,-0.5,3.07,10.57,0.0111854752479121,0.010072746558580542,0.00012294689051850385,0.00013451986422502828
1776792.6370428288,-0.38,2.53,10.54,0.0,-0.38,2.53,10.54,0.011050392934121186,0.010972110384609515,0.00012687508169176672,0.00013842022753535042
1776792.6374139662,-0.69,2.41,10.46,0.0,-0.69,2.41,10.46,0.010794308127369728,0.011866551521234163,0.00013088125315671338,0.00014282434862683085
1776792.6378110577,-0.65,1.53,10.0,0.0,-0.65,1.53,10.0,0.01053619865328073,0.012474101514089796,0.00013506508806947567,0.00014777770829073005
1776792.6381566483,-0.77,0.77,9.46,0.0,-0.77,0.77,9.46,0.010270093949511642,0.012740206217858884,0.00013861433522287242,0.00015218060283821112
1776792.638558093,-0.69,0.65,8.93,0.0,-0.69,0.65,8.93,0.009993097083643071,0.013001145294401736,0.00014262601141488613,0.0001573998441414737
1776792.6388880876,-0.69,0.69,8.73,0.0,-0.69,0.69,8.73,0.009765400812029834,0.013228841566014978,0.00014584854091591237,0.00016176529037675467
1776792.6392454405,-0.46,1.15,8.31,0.0,-0.46,1.15,8.31,0.009601018480025229,0.013639797396026483,0.00014927949267105555,0.0001666395114724703
1776792.6396216103,-0.19,1.46,8.08,0.0,-0.19,1.46,8.08,0.009529546217527237,0.01418900530785315,0.00015286422019077054,0.00017197698679851384
1776792.6399822466,0.04,2.07,7.89,0.0,0.04,2.07,7.89,0.009543971668463198,0.014935522393789057,0.0001563061225667107,0.00017736327793587718
1776792.6403535341,0.08,2.22,7.7,0.0,0.08,2.22,7.7,0.009573674674611536,0.01575978081440543,0.00015986070903823793,0.00018321468876621153
1776792.6406837406,0.19,2.64,7.39,0.0,0.19,2.64,7.39,0.0096364139043726,0.016631525901611786,0.00016304271528044397,0.00018870652626525527
1776792.6410544831,0.19,2.84,7.12,0.0,0.19,2.84,7.12,0.009706854983232911,0.017684434659313325,0.0001666414591612836,0.0001952628981412381
1776792.6414416623,0.27,2.61,6.7,0.0,0.27,2.61,6.7,0.009811393367126579,0.01869497237028546,0.00017044022659218905,0.00020250120258022487
1776792.641793005,0.46,2.64,6.51,0.0,0.46,2.64,6.51,0.009973010965622957,0.019622516848612492,0.00017394417024880213,0.00020939542877484977
1776792.6421486263,0.65,2.68,6.4,0.0,0.65,2.68,6.4,0.010204164832830423,0.020575582024175577,0.00017757298896069627,0.00021671254470551537
1776792.6425094926,0.88,3.07,6.51,0.0,0.88,3.07,6.51,0.010521727185696352,0.021683441596105597,0.00018136992582581355,0.00022453736826402715
1776792.6428672727,1.15,3.64,6.78,0.0,1.15,3.64,6.78,0.01093317434657364,0.022985761305317196,0.00018528159847300843,0.0002327612171593974
1776792.6430555803,1.19,3.98,7.24,0.0,1.19,3.98,7.24,0.011157260395120822,0.023735225568525413,0.00018738259544322233,0.0002372307406123611
1776792.64307748,1.07,4.18,7.43,0.0,1.07,4.18,7.43,0.011180692950729274,0.02382676583249114,0.0001876274479752868,0.00023775253688837922
1776792.6430779784,0.8,4.29,8.16,0.0,0.8,4.29,8.16,0.011181091743055723,0.02382890435634173,0.00018763302164227238,0.00023776441536863552
1776792.6433772903,0.61,4.33,8.85,0.0,0.61,4.33,8.85,0.01136367202736437,0.025124925062991594,0.0001910343043792336,0.00024528460546901967
1776792.6436827073,0.27,4.52,9.35,0.0,0.27,4.52,9.35,0.011446134615689513,0.026505409874953194,0.00019453014840415127,0.0002533798080723806
1776792.6440147436,0.15,4.41,9.61,0.0,0.15,4.41,9.61,0.011495940058957781,0.027969689907040313,0.00019834721767363024,0.00026266676009835513
1776792.6443194246,0.0,4.37,9.73,0.0,0.0,4.37,9.73,0.011495940058957781,0.029301145947538198,0.00020184981237218876,0.00027159426301949
1776792.644654514,-0.04,4.25,9.77,0.0,-0.04,4.25,9.77,0.011482536483090366,0.030725275883451017,0.00020569748859472516,0.00028188997717826686
1776792.6449522874,0.08,4.25,9.77,0.0,0.08,4.25,9.77,0.011506358354818072,0.03199081281898537,0.0002091237760044937,0.000291415990171253
1776792.6452926034,0.15,4.21,9.58,0.0,0.15,4.21,9.58,0.011557405751664189,0.033423543090466405,0.00021305694585727224,0.0003027905559588682
1776792.645633339,0.23,4.52,9.69,0.0,0.23,4.52,9.69,0.011635774925816801,0.03496366773033516,0.00021702166790754155,0.0003147039201561409
1776792.645958187,0.23,4.86,9.73,0.0,0.23,4.86,9.73,0.011710489990655331,0.036542429535184065,0.00022082579842468397,0.00032657465925213497
1776792.6462887404,0.27,4.83,9.92,0.0,0.27,4.83,9.92,0.011799739405978468,0.038139002409297976,0.00022472624228745794,0.000339181635793015
1776792.6466325356,0.3,4.83,10.0,0.0,0.3,4.83,10.0,0.011902877956163136,0.03979953306727107,0.00022881839420553694,0.0003528645229216319
1776792.6469472686,0.23,4.21,10.23,0.0,0.23,4.21,10.23,0.011975266549270596,0.04112455905415116,0.0002325874059341828,0.00036580777932204375
1776792.6472622745,0.11,4.1,10.69,0.0,0.11,4.1,10.69,0.012009917197283353,0.04241608320735395,0.00023637060060205031,0.00037916909540656964
1776792.6476235206,0.11,4.25,10.84,0.0,0.11,4.25,10.84,0.01204965426353737,0.04395137894898653,0.0002407234906912159,0.0003950463577452188
1776792.6479737216,0.08,4.41,11.11,0.0,0.08,4.41,11.11,0.012077670346479856,0.045495765521191084,0.0002449531033684532,0.00041097902199988847
1776792.648308952,0.0,4.67,11.41,0.0,0.0,4.67,11.41,0.012077670346479856,0.047061291919089906,0.00024900190674158676,0.00042675540204668855
1776792.6486796364,-0.11,4.25,11.49,0.0,-0.11,4.25,11.49,0.012036895072087639,0.04863670024788008,0.0002534637949179022,0.00044478426384795525
1776792.6489943746,-0.15,3.71,10.96,0.0,-0.15,3.71,10.96,0.011989684351719909,0.049804378731641924,0.0002572374058194115,0.0004604596011638756
1776792.649368071,-0.15,3.33,10.07,0.0,-0.15,3.33,10.07,0.011933629885315888,0.05104878788581121,0.00026169696085597455,0.00047953635160061686
1776792.649708314,-0.04,2.95,9.58,0.0,-0.04,2.95,9.58,0.011920020161196582,0.05205250503961002,0.0002657526655032357,0.0004972468574333133
1776792.6500281307,-0.34,2.61,8.81,0.0,-0.34,2.61,8.81,0.01181128250434994,0.0528872264642269,0.00026953011016169674,0.0005141610723828361
1776792.6504090098,-0.65,2.41,8.66,0.0,-0.65,2.41,8.66,0.011563711131457228,0.05380514493910605,0.00027393448530100374,0.0005346543240770909
1776792.650714455,-0.96,2.87,9.12,0.0,-0.96,2.87,9.12,0.011270483771804712,0.05468177256640055,0.00027737700009101713,0.0005513566071924712
1776792.6510343226,-1.0,3.07,9.12,0.0,-1.0,3.07,9.12,0.010950616144109512,0.05566376618342481,0.0002808797476988342,0.0005691616440301438
1776792.6513246226,-1.0,3.29,9.39,0.0,-1.0,3.29,9.39,0.010660316145513203,0.05661885317880664,0.0002839744374609129,0.0005855980970284761
1776792.6516343732,-1.07,3.26,9.39,0.0,-1.07,3.26,9.39,0.01032888292800635,0.05762864036485555,0.0002871738158740725,0.0006034486070253635
1776792.651949083,-1.04,2.57,9.08,0.0,-1.04,2.57,9.08,0.01000158480834215,0.05843744437210265,0.00029032141193314207,0.0006218394393916808
1776792.652309577,-1.04,2.34,8.93,0.0,-1.04,2.34,8.93,0.009626671033911401,0.059281000364571845,0.00029379176921441797,0.0006432098851596735
1776792.652624436,-0.92,1.68,8.31,0.0,-0.92,1.68,8.31,0.009337000777013597,0.059809963442385226,0.00029673160770760554,0.0006620415889372867
1776792.6529796878,-0.8,1.3,7.74,0.0,-0.8,1.3,7.74,0.009052799311466516,0.06027179082389924,0.00029994763124713356,0.0006834532530414111
1776792.653289486,-0.54,1.57,7.51,0.0,-0.54,1.57,7.51,0.008885508300736545,0.06075817394768822,0.0003027003454406146,0.0007022760240225518
1776792.6535891301,-0.38,1.61,7.47,0.0,-0.38,1.61,7.47,0.008771643508225678,0.06124060109490531,0.00030532871746178145,0.000720626414382847
1776792.653888662,-0.3,1.99,7.51,0.0,-0.3,1.99,7.51,0.008681783918291327,0.06183666970813649,0.0003079291892711024,0.0007391484736591101
1776792.654193312,-0.08,2.26,7.66,0.0,-0.08,2.26,7.66,0.008657411932945247,0.06252517829416321,0.00031056666823066126,0.0007581967577734391
1776792.6545691688,-0.04,2.18,7.93,0.0,-0.04,2.18,7.93,0.00864237765781581,0.06334454628871754,0.0003138149653176639,0.0007820052411947882
1776792.6548636258,0.0,1.91,8.01,0.0,0.0,1.91,8.01,0.00864237765781581,0.06390695907641201,0.00031635977354323494,0.0008008230898896795
1776792.655136534,-0.04,1.23,7.89,0.0,-0.04,1.23,7.89,0.008631461327895518,0.064242636221461,0.00031871537053197366,0.0008183554351882485
1776792.6554776134,-0.11,0.88,7.85,0.0,-0.11,0.88,7.85,0.008593942590523507,0.06454278612043708,0.0003216465875778281,0.0008403696519310717
1776792.6557074145,0.0,1.15,8.16,0.0,0.0,1.15,8.16,0.008593942590523507,0.06480705732945352,0.0003236214846201025,0.0008552623818382478
1776792.655973579,0.19,1.65,8.5,0.0,0.19,1.65,8.5,0.008644513853359964,0.06524622882250695,0.0003259223476841639,0.0008726286144007245
1776792.6561781517,0.23,2.26,8.77,0.0,0.23,2.26,8.77,0.008691565571352835,0.06570856309495865,0.00032770040460668496,0.000886070791707076
1776792.6562935999,0.23,2.49,8.77,0.0,0.23,2.49,8.77,0.00871811864431947,0.06599602897185831,0.00032870689521753016,0.0008936899107192408
1776792.656597551,0.19,2.64,8.93,0.0,0.19,2.64,8.93,0.008775869351811702,0.06679845985490825,0.0003313743302908277,0.0009139933755403589
1776792.6568889446,0.23,2.87,9.35,0.0,0.23,2.87,9.35,0.0088428898807615,0.06763475949876006,0.00033395109184410353,0.000933701711875138
1776792.6570798296,0.19,2.84,10.3,0.0,0.19,2.84,10.3,0.008879158038180316,0.06817687300965183,0.0003356459902729208,0.0009467156569416473
1776792.657269838,0.08,2.64,11.03,0.0,0.08,2.64,11.03,0.00889435871271416,0.0686784952692687,0.00033733599342266116,0.0009597651501174261
1776792.657342464,0.08,2.3,11.15,0.0,0.08,2.3,11.15,0.00890016878722235,0.06884553491137917,0.00033798237647002656,0.0009647651212098176
1776792.6574200587,0.11,2.11,11.03,0.0,0.11,2.11,11.03,0.008908704211935396,0.0690092598763294,0.00033867364532540623,0.0009701198788659757
1776792.6575824847,0.3,2.18,10.61,0.0,0.3,2.18,10.61,0.008957431986927982,0.06936334837460885,0.00034012856442664093,0.0009813862843070765
1776792.6577031286,0.5,2.76,10.69,0.0,0.5,2.76,10.69,0.00901775398291647,0.0696963257924653,0.00034121650226580624,0.0009897947272768074
1776792.6580225371,0.65,3.52,10.96,0.0,0.65,3.52,10.96,0.009225369498599322,0.07082064366200931,0.0003441631635670624,0.0010124154418227752
1776792.6583534295,0.73,3.83,11.11,0.0,0.73,3.83,11.11,0.009466920944396398,0.07208796152146525,0.0003472956956785222,0.0010362687998091789
1776792.6585929159,0.69,4.1,11.38,0.0,0.69,4.1,11.38,0.009632166519295418,0.07306985551724204,0.00034960246798867295,0.0010537680321029974
1776792.6588980677,0.38,3.75,11.15,0.0,0.38,3.75,11.15,0.00974812420317903,0.07421417476609343,0.0003525771256329108,0.0010764146210956538
1776792.6591937596,0.5,3.26,10.96,0.0,0.5,3.26,10.96,0.009895970148500058,0.07517813032958649,0.000355503283755858,0.0010986441845877435
1776792.6595300348,0.54,3.03,10.69,0.0,0.54,3.03,10.69,0.010077558758202947,0.07619704419514158,0.00035889211687456393,0.0011242673611041602
1776792.6598703193,0.5,2.34,10.42,0.0,0.5,2.34,10.42,0.010247701031621554,0.07699331003474066,0.0003623792511762325,0.0011504669947188287
1776792.6602522917,0.57,1.65,10.19,0.0,0.57,1.65,10.19,0.010465425304137183,0.07762356450781221,0.0003663767548795832,0.001180117054565378
1776792.6605621502,0.61,1.34,9.69,0.0,0.61,1.34,9.69,0.010654438971541832,0.07803877485916014,0.00036967812305032115,0.0012042980300340598
1776792.6608534707,0.57,1.07,9.54,0.0,0.57,1.07,9.54,0.010820491653867075,0.0783504877891391,0.00037283035403839576,0.0012271231329443718
1776792.6610159762,0.54,1.04,9.0,0.0,0.54,1.04,9.0,0.010908244648016999,0.07851949355565006,0.00037460300427688347,0.0012398829860159346
1776792.6611965345,0.65,1.07,8.66,0.0,0.65,1.07,8.66,0.011025607543997479,0.07871269093826408,0.0003765937692481261,0.0012540952157989052
1776792.6612879331,0.77,1.0,8.31,0.0,0.77,1.0,8.31,0.011095984466373932,0.07880408953875298,0.0003776079266993993,0.0012612977992955492
1776792.6614828538,0.73,1.15,8.08,0.0,0.73,1.15,8.08,0.011238276571966719,0.07902824833523477,0.0003797984993523572,0.0012767020401954537
1776792.66157985,0.88,1.19,7.89,0.0,0.88,1.19,7.89,0.011323633124120545,0.07914367367280642,0.00038089684739932284,0.0012843786664562473
1776792.6616976606,1.0,1.46,7.7,0.0,1.0,1.46,7.7,0.011441443799994898,0.07931567725958297,0.00038224477162637863,0.0012937229000016307
1776792.6617632643,1.19,1.61,7.39,0.0,1.19,1.61,7.39,0.01151951227337123,0.079421299311798,0.0003830004949349686,0.00129893323579225
1776792.6618127436,1.23,1.3,6.97,0.0,1.23,1.3,6.97,0.011580371819436561,0.07948562240926543,0.0003835734836928537,0.0013028661292057038
1776792.6618428244,1.07,1.3,6.89,0.0,1.07,1.3,6.89,0.011612558262422691,0.07952472743345419,0.0003839227985941963,0.001305258295659465
1776792.6620590007,1.07,1.42,6.74,0.0,1.07,1.42,6.74,0.01184386686887593,0.07983169773360708,0.0003864831615292032,0.0013225160141207332
1776792.6622184727,1.19,1.99,6.78,0.0,1.19,1.99,6.78,0.012033638542052368,0.08014904700219626,0.00038840218986577944,0.001335297542484686
1776792.6624256251,1.27,2.57,6.7,0.0,1.27,2.57,6.7,0.012296722154133029,0.0806814287998713,0.00039094948599259965,0.0013520108981669686
1776792.6625645622,1.23,2.68,6.7,0.0,1.23,2.68,6.7,0.012467614701017744,0.081053780040238,0.00039268169935018847,0.0013632722696350253
1776792.6626228367,1.27,2.99,6.74,0.0,1.27,2.99,6.74,0.012541623294819153,0.0812280207453295,0.00039341255596754007,0.0013680057905741067
1776792.6626548346,1.3,3.33,7.09,0.0,1.3,3.33,7.09,0.01258322058478371,0.08133457380346948,0.00039381519279473487,0.0013706083273822963
1776792.6626849642,1.38,3.71,7.43,0.0,1.38,3.71,7.43,0.012624799546319999,0.08144635492470109,0.0003941955739938217,0.0013730622801784449
1776792.6627128215,1.3,3.83,7.74,0.0,1.3,3.83,7.74,0.012661013978067792,0.08155304821208113,0.0003945482750911806,0.001375334124254061
1776792.6628046143,1.27,3.79,7.89,0.0,1.27,3.79,7.89,0.012777590812183923,0.08190094285877415,0.00039572116570890957,0.0013828520397104406
1776792.6629528422,1.23,3.98,8.16,0.0,1.23,3.98,8.16,0.012959911134094006,0.08249088991666206,0.0003976421861722381,0.0013950794914212171
1776792.663108787,1.27,4.1,8.31,0.0,1.27,4.1,8.31,0.013157961084507406,0.08313026377232738,0.00039969410234572486,0.0014080432273408728
1776792.663196241,1.27,4.33,8.46,0.0,1.27,4.33,8.46,0.013269027643837035,0.08350893952185282,0.0004008545316733238,0.001415346416778635
1776792.6631966466,0.96,4.45,9.12,0.0,0.96,4.45,9.12,0.01326941701117903,0.08351074440171935,0.0004008599136291899,0.0014153802879834014
1776792.663196909,0.65,4.21,9.81,0.0,0.65,4.21,9.81,0.013269587571267038,0.08351184910628938,0.0004008633955707653,0.001415402201503914
1776792.6632526536,0.19,3.83,10.57,0.0,0.19,3.83,10.57,0.013280179034918547,0.08372535071568557,0.00040160369311568035,0.001420069433129256
1776792.6633126228,0.0,3.79,10.88,0.0,0.0,3.79,10.88,0.013280179034918547,0.08395263420185067,0.0004024000955927128,0.0014251040102728285
1776792.663541385,-0.04,3.87,10.65,0.0,-0.04,3.87,10.65,0.01327102854847908,0.08483794376486907,0.0004054360047619786,0.001444511721622145
1776792.663623151,0.27,4.29,10.19,0.0,0.27,4.29,10.19,0.013293105349875987,0.08518871960928659,0.000406522927898117,0.0014514772566001856
1776792.6637521035,0.77,4.94,10.27,0.0,0.77,4.94,10.27,0.013392398816067725,0.08582574522355566,0.0004082499119228826,0.00146254470560244
1776792.6637524636,0.96,5.25,10.34,0.0,0.96,5.25,10.34,0.013392744597513228,0.08582763621583575,0.0004082547358422432,0.001462575619773393
1776792.6637527102,1.11,5.29,10.61,0.0,1.11,5.29,10.61,0.013393018287606537,0.08582894055871287,0.0004082580381273106,0.0014625967824137085
1776792.66375292,0.8,5.25,11.03,0.0,0.8,5.25,11.03,0.013393186111934482,0.08583004190586502,0.00040826084775538344,0.001462614787875084
1776792.6638681588,0.34,1.11,12.41,0.0,0.34,1.11,12.41,0.013432367313653229,0.08595795700559387,0.00040980877802972626,0.00147252048214793
1776792.6640399166,0.15,-1.57,6.05,0.0,0.15,-1.57,6.05,0.013458130978979169,0.08568829730851571,0.00041212031657942677,0.0014872381129093048
1776792.664167913,1.42,-2.49,11.91,0.0,1.42,-2.49,11.91,0.013639885750599207,0.08536958647659044,0.0004138661717340208,0.0014981651056511004
1776792.6642976736,-0.77,-1.68,8.85,0.0,-0.77,-1.68,8.85,0.013539970004931094,0.08515158848604183,0.00041562312783709426,0.0015092144361165643
1776792.6643933023,0.57,-1.11,7.28,0.0,0.57,-1.11,7.28,0.013594478345476092,0.08504544066498052,0.0004169231496882992,0.0015173472182947508
1776792.664579839,-0.19,2.34,10.46,0.0,-0.19,2.34,10.46,0.013559036373626442,0.08548193652881304,0.0004194524075065227,0.001533292736126897
1776792.6645802746,0.0,2.84,12.18,0.0,0.0,2.84,12.18,0.013559036373626442,0.08548317370703439,0.0004194583141771226,0.0015333299748314046
1776792.6648696943,-0.38,-1.72,12.68,0.0,-0.38,-1.72,12.68,0.01344905690057204,0.08498537188163022,0.00042335073573239543,0.0015579264127705485
1776792.6648916414,2.22,1.15,6.74,0.0,2.22,1.15,6.74,0.013497779422905304,0.08501061102608214,0.00042364697260599093,0.001559792147632838
1776792.6648919308,2.07,-3.26,7.59,0.0,2.07,-3.26,7.59,0.013498378498479732,0.08500966755440453,0.0004236508791513305,0.0015598167501523655
1776792.6648921284,0.54,0.34,5.13,0.0,0.54,0.34,5.13,0.013498485242016621,0.08500973476329814,0.0004236535474403256,0.0015598335543000666
1776792.6648923384,2.3,-1.19,21.72,0.0,2.3,-1.19,21.72,0.013498968272469946,0.08500948484754185,0.000423656382402397,0.001559851407417459
1776792.6648925496,-0.73,1.34,10.73,0.0,-0.73,1.34,10.73,0.013498814112972476,0.08500976782524954,0.00042365923304678066,0.0015598693595586753
1776792.6648927517,0.96,-1.72,9.2,0.0,0.96,-1.72,9.2,0.01349900812609122,0.08500942021841179,0.00042366196115580824,0.001559886539707362
1776792.6648929592,-1.3,-3.29,6.97,0.0,-1.3,-3.29,6.97,0.013498738438356677,0.0850087377009913,0.00042366476149749183,0.0015599041749488137
1776792.664893179,-0.27,-0.08,13.18,0.0,-0.27,-0.08,13.18,0.013498679094482222,0.08500872011762109,0.0004236677284008899,0.0015599228591962736
1776792.664893388,-2.3,2.26,10.07,0.0,-2.3,2.26,10.07,0.01349819820607082,0.08500919264275578,0.0004236705506300604,0.001559940633081319
1776792.6648935862,-1.46,3.41,9.92,0.0,-1.46,3.41,9.92,0.013497908923309305,0.08500986829632891,0.0004236732250905864,0.0015599574768412209
1776792.664893805,-0.38,-4.98,13.68,0.0,-0.38,-4.98,13.68,0.013497825756203391,0.08500877836951984,0.00042367617923559766,0.0015599760819308898
1776792.6648940048,-2.57,0.5,4.25,0.0,-2.57,0.5,4.25,0.013497312350664295,0.08500887825386597,0.00042367887557603494,0.0015599930640433288
1776792.6648942118,-0.19,2.8,10.61,0.0,-0.19,2.8,10.61,0.013497273023240277,0.08500945781590415,0.00042368166932855756,0.0015600106598485561
1776792.6649096862,1.07,-0.11,5.94,0.0,1.07,-0.11,5.94,0.013513830620795498,0.08500775563297791,0.00042389078761720107,0.0015613261030325218
1776792.665198511,-0.15,-0.57,12.03,0.0,-0.15,-0.57,12.03,0.013470506903249779,0.08484312550630418,0.000427781403859028,0.001585830900400062
1776792.6651990982,2.57,-3.41,10.65,0.0,2.57,-3.41,10.65,0.013472016004379847,0.08484112315811215,0.0004277893146117815,0.0015858807190128378
1776792.665353316,0.08,2.3,3.95,0.0,0.08,2.3,3.95,0.013484353439416745,0.08519582441542296,0.00042986884379394864,0.0015990194433770906
1776792.6653826325,3.79,-4.56,6.63,0.0,3.79,-4.56,6.63,0.013595462613739085,0.08506214160937815,0.00043026741387984383,0.0016015131595565914
1776792.665592874,-2.14,0.88,5.17,0.0,-2.14,0.88,5.17,0.013145545986481022,0.08524715405423193,0.00043303115206381733,0.0016194356418161374
1776792.6657706965,2.26,-2.76,11.95,0.0,2.26,-2.76,11.95,0.01354742493014782,0.08475636383984238,0.00043544018959493826,0.001634507233837817
1776792.6658475872,0.8,-2.68,5.29,0.0,0.8,-2.68,5.29,0.013608937482349568,0.08455029678996652,0.00043648659019155495,0.0016410083645190246
1776792.666048881,-0.54,-3.6,4.18,0.0,-0.54,-3.6,4.18,0.013500238866545253,0.08382563935127109,0.0004392041036690014,0.0016578819403827187
1776792.6662214356,-0.23,0.5,13.98,0.0,-0.23,0.5,13.98,0.013460551274474705,0.0839119167253375,0.00044152678570389737,0.001672361340038602
1776792.666405563,-5.44,4.02,10.34,0.0,-5.44,4.02,10.34,0.012458898422773947,0.08465210872236639,0.0004438208098094529,0.0016879481095430583
1776792.6666529851,-1.0,-2.07,7.97,0.0,-1.0,-2.07,7.97,0.012211476282682286,0.08413994489237667,0.00044684219940499266,0.0017087661947755243
1776792.6668835245,0.0,-0.77,6.4,0.0,0.0,-0.77,6.4,0.012211476282682286,0.08396242958726362,0.0004496574252987603,0.0017281228393290515
1776792.6670805276,1.88,-0.42,13.41,0.0,1.88,-0.42,13.41,0.012581842166837325,0.08387968827271834,0.0004521360875851538,0.0017446474004512717
1776792.667223021,2.84,-0.96,5.55,0.0,2.84,-0.96,5.55,0.012986523096915356,0.08374289471888915,0.0004539865799250621,0.0017565802006351684
1776792.6674383702,0.84,-3.37,2.64,0.0,0.84,-3.37,2.64,0.013167416469659677,0.08301716773537919,0.00045682217322925956,0.0017744578857153278
1776792.6677127336,1.34,0.57,14.98,0.0,1.34,0.57,14.98,0.013535063478630047,0.08317355489591136,0.0004605356997995152,0.0017972776683145184
1776792.6677132137,1.19,1.15,12.98,0.0,1.19,1.15,12.98,0.013535634793806832,0.08317410700721665,0.0004605421982142926,0.001797317599936072
1776792.6677135117,0.34,-0.38,3.83,0.0,0.34,-0.38,3.83,0.013535736121702951,0.08317399375839159,0.0004605462321780092,0.0017973423877178346
1776792.6677137746,-0.65,-2.72,9.2,0.0,-0.65,-2.72,9.2,0.013535565258935105,0.0831732787634246,0.0004605497902151545,0.0017973642511280197
1776792.667713992,0.84,0.69,7.85,0.0,0.84,0.69,7.85,0.013535747928544891,0.08317342881346121,0.0004605527337506215,0.0017973823383396696
1776792.667767545,-0.73,3.14,6.97,0.0,-0.73,3.14,6.97,0.013496654303744448,0.0833415849530138,0.00046127551887310353,0.0018018455227950497
1776792.6680075547,0.92,0.19,8.27,0.0,0.92,0.19,8.27,0.013717463267967113,0.08338718680432065,0.00046456784371654085,0.001821859260129511
1776792.6682932894,1.19,-0.77,6.44,0.0,1.19,-0.77,6.44,0.01405748750781641,0.08316717111971228,0.0004685845550644705,0.0018456230031046342
1776792.6684483497,0.69,-2.68,16.39,0.0,0.69,-2.68,16.39,0.014164479128085074,0.08275160946417599,0.00047078090371979747,0.0018584544940849423
1776792.6685829153,0.15,2.26,4.48,0.0,0.15,2.26,4.48,0.01418466397328302,0.08305572779849171,0.00047268967202970146,0.0018696309408077108
1776792.6688325976,-0.11,1.42,12.49,0.0,-0.11,1.42,12.49,0.014157198928296564,0.08341027656104417,0.00047622447298831857,0.001890457004426637
1776792.6689927378,0.3,0.42,5.4,0.0,0.3,0.42,5.4,0.014205240993760524,0.08347753545269372,0.00047849930338083045,0.0019038251151699314
1776792.6691002205,0.92,-1.65,14.14,0.0,0.92,-1.65,14.14,0.01430412514600903,0.08330018887529152,0.00048003675043378655,0.0019127784505602284
1776792.669221133,-2.76,-0.73,6.36,0.0,-2.76,-0.73,6.36,0.013970406795851886,0.08321192278992387,0.0004817259464870242,0.0019228398076569157
1776792.669226075,-0.19,-0.92,12.6,0.0,-0.19,-0.92,12.6,0.013969467803835869,0.08320737609174104,0.00048179498448037056,0.0019232510237717783
1776792.6692263316,1.11,-1.04,3.18,0.0,1.11,-1.04,3.18,0.013969752606935799,0.08320710924919697,0.0004817985688306838,0.0019232723729993913
1776792.669448159,1.61,1.53,18.23,0.0,1.61,1.53,18.23,0.014326894560363181,0.08354650501860308,0.00048497666517219665,0.0019418052686542803
1776792.6696887014,-1.57,1.57,6.24,0.0,-1.57,1.57,6.24,0.013949242897797412,0.08392415668116886,0.0004883320503772201,0.0019619925917753463
1776792.6700086219,0.77,-2.87,11.68,0.0,0.77,-2.87,11.68,0.014195581667590938,0.08300598490284757,0.0004928735076817625,0.0019885479063291986
1776792.670239063,0.23,0.27,3.71,0.0,0.23,0.27,3.71,0.014248583121225289,0.08306820400059224,0.0004961569668889574,0.0020076902348632256
1776792.670244407,1.07,-0.38,20.15,0.0,1.07,-0.38,20.15,0.014254301125183753,0.08306617330759765,0.000496233140861162,0.0020081341345901294
1776792.6702447855,1.3,0.3,12.64,0.0,1.3,0.3,12.64,0.014254793282598308,0.08306628688238563,0.0004962385374782443,0.0020081655820431976
1776792.6702450444,1.61,-3.6,5.94,0.0,1.61,-3.6,5.94,0.014255210123956254,0.08306535481475295,0.0004962422282615647,0.0020081870883011475
1776792.670245303,0.57,1.65,10.11,0.0,0.57,1.65,10.11,0.014255357568617961,0.08306578162824736,0.0004962459157639757,0.0020082085753293432
1776792.670245575,2.57,-5.21,7.24,0.0,2.57,-5.21,7.24,0.014256056470330855,0.08306436478858815,0.0004962497926442427,0.002008231164367021
1776792.6702746972,-1.91,0.34,5.71,0.0,-1.91,0.34,5.71,0.014200433022342673,0.08307426634477454,0.0004966633408367181,0.002010650471766594
1776792.6702755103,0.57,-1.8,9.23,0.0,0.57,-1.8,9.23,0.014200896457769027,0.08307280286448078,0.0004966748867990067,0.0020107180136610045
1776792.670275739,0.0,0.8,13.56,0.0,0.0,0.8,13.56,0.014200896457769027,0.08307298577623444,0.0004966781336875999,0.0020107370074428916
1776792.6702759303,0.73,0.46,8.16,0.0,0.73,0.46,8.16,0.014201036170125058,0.08307307381415742,0.0004966808515783142,0.0020107529065317483
1776792.670276152,-0.15,3.1,13.37,0.0,-0.15,3.1,13.37,0.014201002921909145,0.08307376094395297,0.0004966839992983897,0.0020107713202273526
1776792.6702763825,0.34,-2.07,4.33,0.0,0.34,-2.07,4.33,0.0142010812927038,0.08307328380411493,0.0004966872726808187,0.0020107904688134296
1776792.670276693,-1.34,-0.15,15.25,0.0,-1.34,-0.15,15.25,0.014200665093958429,0.08307323721470312,0.0004966916833517109,0.002010816271035148
1776792.6702769313,1.07,0.92,7.01,0.0,1.07,0.92,7.01,0.014200919952709279,0.08307345634559171,0.0004966950658084586,0.0020108360579485242
1776792.6702771813,-1.91,-3.03,13.98,0.0,-1.91,-3.03,13.98,0.014200442337896725,0.08307269866345451,0.0004966986167726499,0.0020108568311167966
1776792.6704883059,-0.38,1.34,10.46,0.0,-0.38,1.34,10.46,0.014120215012226303,0.08335560554871337,0.0004996797406892874,0.00202845524509788
1776792.6705833478,-1.68,3.68,12.53,0.0,-1.68,3.68,12.53,0.013960544562432958,0.08370535986730832,0.0005010065778497895,0.002036410764419384
1776792.670583811,-0.69,2.99,9.73,0.0,-0.69,2.99,9.73,0.013960225023329302,0.0837067445367575,0.000501013042832095,0.002036449529025354
1776792.6705840973,1.65,-1.72,10.96,0.0,1.65,-1.72,10.96,0.013960697553120597,0.08370625196024778,0.0005010170409202775,0.0020364735009633958
1776792.6705843508,-3.33,-0.15,12.34,0.0,-3.33,-0.15,12.34,0.01395985322305937,0.08370621392736213,0.0005010205804769521,0.0020364947248891407
1776792.6707286667,1.49,-1.34,4.83,0.0,1.49,-1.34,4.83,0.014174883889500096,0.083512830643449,0.00050306624136922,0.0020485469528284776
1776792.6710791823,1.99,-0.73,7.82,0.0,1.99,-0.73,7.82,0.014872409915551586,0.08325695426203313,0.000508279252920076,0.002077729813354883
1776792.6714238373,2.34,-1.49,16.51,0.0,2.34,-1.49,16.51,0.015678902640938734,0.08274341829586777,0.0005136830652798928,0.0021062477470853483
1776792.6716731745,0.15,0.73,11.15,0.0,0.15,0.73,11.15,0.01571630321675909,0.08292543443152685,0.000517601723880387,0.0021269241404046307
1776792.6718809241,0.0,-2.03,9.69,0.0,0.0,-2.03,9.69,0.01571630321675909,0.08250370261957873,0.0005208667805467564,0.0021440642566598936
1776792.6721527195,0.34,1.76,7.55,0.0,0.34,1.76,7.55,0.015808713624719507,0.08298206237843264,0.0005251635148861379,0.0021666183926533863
1776792.6724984962,0.27,-3.03,18.92,0.0,0.27,-3.03,18.92,0.015902073357719895,0.0819343587080949,0.0005306620827484692,0.0021949493921072623
1776792.67281825,0.84,-1.07,2.34,0.0,0.84,-1.07,2.34,0.016170666527468677,0.08159222217043871,0.0005358327143908066,0.0022210388130353637
1776792.6731132485,1.46,-0.42,9.35,0.0,1.46,-0.42,9.35,0.01660136436810713,0.08146832279162491,0.0005407300923257354,0.002245071847766042
1776792.6734277008,-1.8,-4.1,9.69,0.0,-1.8,-4.1,9.69,0.016035350372549106,0.08017906869063163,0.000545772443844924,0.0022702843338936562
1776792.6735007318,0.92,-0.15,9.16,0.0,0.92,-0.15,9.16,0.016102538944687654,0.08016811403213078,0.0005469484292791619,0.002276139095972851
1776792.673640421,1.72,0.5,5.82,0.0,1.72,0.5,5.82,0.016342804150190165,0.08023795856861407,0.0005492313404405763,0.002287347462022031
1776792.6738010189,0.96,-0.19,7.85,0.0,0.96,-0.19,7.85,0.016496978194918445,0.08020744495559493,0.0005518807215386021,0.002300228614320078
1776792.6738279948,1.91,-2.14,19.19,0.0,1.91,-2.14,19.19,0.016548502338118807,0.08014971633441755,0.0005523271337921209,0.002302390732362949
1776792.673828935,-0.8,1.88,6.32,0.0,-0.8,1.88,6.32,0.016547750202007546,0.080151483854279,0.0005523426914927297,0.0023024660883946713
1776792.673829273,0.27,0.65,10.73,0.0,0.27,0.65,10.73,0.016547841480933086,0.08015170359984049,0.0005523482858230643,0.0023024931852886885
1776792.6738296568,-0.3,2.3,7.24,0.0,-0.3,2.3,7.24,0.016547726369462862,0.08015258612111219,0.0005523546352667684,0.00230252394022879
1776792.6738299625,1.61,0.15,11.41,0.0,1.61,0.15,11.41,0.016548218557145403,0.08015263197710745,0.0005523596941669806,0.002302548443420208
1776792.6738302908,0.84,-2.99,6.82,0.0,0.84,-2.99,6.82,0.016548494321759748,0.08015165038639688,0.0005523651268921647,0.0023025747565023004
1776792.6739528254,0.73,0.54,8.39,0.0,0.73,0.54,8.39,0.016637944562826263,0.08021781905787073,0.0005544038503880499,0.002312404213012652
1776792.674152773,0.15,-2.41,9.69,0.0,0.15,-2.41,9.69,0.01666793672367926,0.07973594500683254,0.0005577365666500779,0.0023283472349353903
1776792.6741588172,0.15,2.22,3.91,0.0,0.15,2.22,3.91,0.01666884333128105,0.07974936279933906,0.0005578373139839259,0.0023288292441257363
1776792.674159053,2.61,-3.48,10.38,0.0,2.61,-3.48,10.38,0.016669458919204728,0.07974854201544082,0.0005578412455998665,0.002328848053412861
1776792.6741592658,2.22,-0.27,6.17,0.0,2.22,-0.27,6.17,0.016669931351207153,0.07974848455749459,0.0005578447930814199,0.0023288650244652257
1776792.6741594835,3.03,-5.36,9.54,0.0,3.03,-5.36,9.54,0.016670590972062155,0.07974731770344085,0.0005578484222132584,0.002328882385189281
1776792.6741596903,1.07,-1.76,7.36,0.0,1.07,-1.76,7.36,0.01667081219842653,0.07974695381708449,0.0005578518689638881,0.002328898873159994
1776792.6741598938,1.57,-0.3,9.84,0.0,1.57,-0.3,9.84,0.01667113168397914,0.07974689276888973,0.0005578552614388682,0.0023289151011728
1776792.6741601052,1.38,-3.07,11.61,0.0,1.38,-3.07,11.61,0.016671423430088865,0.0797462437395007,0.0005578587859482372,0.002328931960344087
1776792.674160304,0.54,-1.95,9.16,0.0,0.54,-1.95,9.16,0.01667153080226849,0.07974585600662983,0.0005578621008715704,0.0023289478168003384
1776792.6741605126,0.11,2.37,11.15,0.0,0.11,2.37,11.15,0.01667155375005673,0.07974635042715823,0.0005578655788287073,0.002328964453185451
1776792.674160723,0.88,-0.23,3.07,0.0,0.88,-0.23,3.07,0.01667173897149037,0.0797463020170108,0.0005578690878780182,0.0023289812380995274
1776792.674160934,1.04,-1.49,11.91,0.0,1.04,-1.49,11.91,0.016671958353836044,0.07974598770961171,0.00055787260473699,0.002328998060082068
1776792.6741611445,0.27,-0.88,11.45,0.0,0.27,-0.88,11.45,0.016672015183139547,0.07974580248817807,0.0005578761138444376,0.002329014844891004
1776792.674161344,-1.23,3.6,6.7,0.0,-1.23,3.6,6.7,0.016671769754029765,0.07974652081727987,0.00055787944046038,0.002329030757181746
1776792.6741615525,-1.53,-0.34,9.92,0.0,-1.53,-0.34,9.92,0.01667145092738788,0.079746449966915,0.0005578829145144418,0.002329047375020207
1776792.6741617748,-0.42,-0.38,10.61,0.0,-0.42,-0.38,10.61,0.01667135753901671,0.07974636547267443,0.0005578866214452174,0.002329065106884917
1776792.6741619776,2.18,-1.0,9.73,0.0,2.18,-1.0,9.73,0.01667179963318627,0.0797461626771838,0.0005578900024110036,0.0023290812790471025
1776792.674162195,-0.11,-1.61,12.22,0.0,-0.11,-1.61,12.22,0.01667177571216594,0.07974581256043171,0.0005578936279190557,0.0023290986208762245
1776792.674176657,-0.77,-2.87,10.88,0.0,-0.77,-2.87,10.88,0.016660639939364005,0.07970430649816995,0.0005581345748036006,0.002330251307952198
1776792.6741771773,-1.04,0.57,5.82,0.0,-1.04,0.57,5.82,0.016660098989959765,0.07970460298005497,0.0005581432404484306,0.002330292765795945
1776792.674177539,0.54,1.57,7.82,0.0,0.54,1.57,7.82,0.016660294372122693,0.07970517103560273,0.0005581492684564851,0.002330321604626896
1776792.674177807,1.88,-1.84,9.27,0.0,1.88,-1.84,9.27,0.01666079818969588,0.07970467793755238,0.0005581537333516507,0.0023303429645297738
1776792.67422287,2.03,-2.64,14.14,0.0,2.03,-2.64,14.14,0.016752276027109433,0.07958571168594067,0.0005589086407322984,0.002333929333393837
1776792.6742231867,1.11,-0.42,2.95,0.0,1.11,-0.42,2.95,0.01675262750824909,0.07958557869307702,0.0005589139454463605,0.002333954534141494
1776792.6744186126,1.0,1.88,9.88,0.0,1.0,1.88,9.88,0.01694805344333868,0.07995297945104543,0.0005622260346384733,0.002349579419913913
1776792.6744535228,1.3,-3.87,13.21,0.0,1.3,-3.87,13.21,0.016993436652701303,0.079817877127789,0.000562819278248781,0.0023523658748589677
1776792.6744541842,2.76,-0.5,10.3,0.0,2.76,-0.5,10.3,0.016995262315031096,0.07981754639185969,0.0005628305201365323,0.00235241867191973
1776792.674454568,-0.15,0.65,6.21,0.0,-0.15,0.65,6.21,0.016995204759295984,0.07981779580004517,0.0005628370412798876,0.002352449298399145
1776792.6745926251,1.19,0.65,4.1,0.0,1.19,0.65,4.1,0.017159492783248378,0.07990753295598554,0.0005652060321718079,0.0023634811057001953
1776792.6746414031,1.11,-0.38,12.76,0.0,1.11,-0.38,12.76,0.017213636385276867,0.07988899730844426,0.0005660456792690219,0.0023673779327963427
1776792.674641735,1.49,-1.0,7.43,0.0,1.49,-1.0,7.43,0.017214130742941005,0.07988866552477705,0.0005660513906364476,0.0023674044385507587
1776792.6747878785,1.07,0.5,10.04,0.0,1.07,0.5,10.04,0.01737050439929585,0.07996173732681203,0.0005685899787538736,0.0023790903350313936
1776792.674953059,2.26,-1.76,12.68,0.0,2.26,-1.76,12.68,0.017743812410626517,0.07967101958347486,0.000571520911198314,0.0023922504367488245
1776792.675102103,-0.61,1.38,12.14,0.0,-0.61,1.38,12.14,0.017652895585633776,0.07987670026952404,0.0005741519689336817,0.0024041555776986643
1776792.675163444,-0.08,-1.23,6.21,0.0,-0.08,-1.23,6.21,0.017647988316602966,0.07980125100817534,0.0005752345117652086,0.002409050655294818
1776792.675192442,2.11,-0.46,15.21,0.0,2.11,-0.46,15.21,0.017709174361079893,0.07978791187051686,0.0005757480446230792,0.0024113643551642162
1776792.6751934,0.34,-2.68,11.15,0.0,0.34,-2.68,11.15,0.01770950003527101,0.07978534479159864,0.0005757650079380764,0.002411440778774887
1776792.675198271,0.27,-0.8,8.93,0.0,0.27,-0.8,8.93,0.0177108152187429,0.07978144795168193,0.0005758512782027037,0.002411829398188625
1776792.6752269282,0.69,0.0,5.44,0.0,0.69,0.0,5.44,0.01773058872902762,0.07978144795168193,0.0005763593883165987,0.0024141157159880493
1776792.6754047158,2.11,0.42,10.88,0.0,2.11,0.42,10.88,0.0181057206005789,0.07985611875075849,0.0005795783612335086,0.0024283131450315533
1776792.675569647,0.11,-0.19,12.03,0.0,0.11,-0.19,12.03,0.018123863029759345,0.07982478182762863,0.0005825675512470855,0.0024414787400420268
1776792.6756879147,1.19,-0.61,7.28,0.0,1.19,-0.61,7.28,0.01826460161944848,0.07975263851694764,0.0005847276640816696,0.0024509109029570374
1776792.67589763,0.92,-0.11,12.79,0.0,0.92,-0.11,12.79,0.018457539619412246,0.07972956984303893,0.0005885984910147362,0.002467631407026045
1776792.6760496637,0.54,2.8,9.58,0.0,0.54,2.8,9.58,0.018539637846406522,0.08015526435337962,0.0005914171417486362,0.0024798177127439524
1776792.6761996998,2.03,0.08,16.97,0.0,2.03,0.08,16.97,0.01884421106195077,0.08016726723872127,0.0005942444530577654,0.002491845694204194
1776792.6764531834,0.61,-0.57,4.1,0.0,0.61,-0.57,4.1,0.01899883609032258,0.0800227815564722,0.0005990603474339909,0.0025121301612018344
1776792.676623126,1.95,-0.27,7.09,0.0,1.95,-0.27,7.09,0.019330224201548847,0.07997689704876396,0.0006023453764020583,0.002525721644717079
1776792.6767846546,2.41,-4.71,9.73,0.0,2.41,-4.71,9.73,0.019719508097041392,0.0792160974023864,0.0006055306406880389,0.002538517309025178
1776792.6769551886,-0.84,2.61,23.71,0.0,-0.84,2.61,23.71,0.019576259527821088,0.07966119117103512,0.0006088690587452363,0.0025521022514747443
1776792.6771126417,-0.42,1.19,6.47,0.0,-0.42,1.19,6.47,0.019510129217524076,0.07984856038354332,0.0006119409894573545,0.002564674656415062
1776792.6772247497,0.8,-0.5,5.98,0.0,0.8,-0.5,5.98,0.019599815581459547,0.07979250640608365,0.0006141382846989881,0.002573620031126136
1776792.6774276947,0.23,-1.99,9.88,0.0,0.23,-1.99,9.88,0.019646492924075568,0.07938864591997112,0.0006181254415747286,0.0025897315573236513
1776792.6775734825,1.53,-1.42,10.84,0.0,1.53,-1.42,10.84,0.019869548317510623,0.07918162718880917,0.0006210221800827934,0.0026012752756278527
1776792.6777612038,-0.77,1.88,4.6,0.0,-0.77,1.88,4.6,0.019725002888590085,0.0795345433009788,0.0006247249839827806,0.002616205606375176
1776792.677967802,0.65,-2.49,15.02,0.0,0.65,-2.49,15.02,0.019859291641041638,0.07902011408004907,0.0006288278755197756,0.0026325310102803885
1776792.6781196662,0.42,-1.27,7.47,0.0,0.42,-1.27,7.47,0.01992307462729514,0.07882724647875872,0.0006318534783652047,0.002644502051181712
1776792.678278177,0.8,1.15,12.11,0.0,0.8,1.15,12.11,0.020049883322790275,0.07900953397853297,0.0006350316028014454,0.0026570259211010816
1776792.67842477,-1.76,-4.41,0.65,0.0,-1.76,-4.41,0.65,0.0197918797004968,0.07836305899312716,0.0006379329531734481,0.0026685133944387087
1776792.6785976824,0.61,-3.41,17.85,0.0,0.61,-3.41,17.85,0.019897356249857695,0.07777342779096211,0.0006413734523187588,0.002681961382627823
1776792.6786567904,-1.57,-0.46,5.02,0.0,-1.57,-0.46,5.02,0.019804556663148107,0.07774623810313637,0.0006425440603909288,0.0026865568085922796
1776792.6786570786,0.38,-0.46,5.05,0.0,0.38,-0.46,5.05,0.019804666195996107,0.07774610551074142,0.0006425497689738029,0.002686579218466905
1776792.6786573061,-2.61,-3.29,23.33,0.0,-2.61,-3.29,23.33,0.01980407248483971,0.0777453571162186,0.0006425542739158628,0.002686596903633908
1776792.6786575294,-2.37,-0.77,12.03,0.0,-2.37,-0.77,12.03,0.019803543300367894,0.07774518518708641,0.000642558695741855,0.0026866142629354945
1776792.6786577215,0.61,0.42,3.6,0.0,0.61,0.42,3.6,0.019803660472389312,0.07774526586290444,0.0006425624997335419,0.0026866291966567354
1776792.678657935,0.34,-2.45,13.87,0.0,0.34,-2.45,13.87,0.01980373306432739,0.07774474277393888,0.000642566727943437,0.0026866457956024807
1776792.6786581378,2.03,0.15,10.61,0.0,2.03,0.15,10.61,0.019804144739173354,0.07774477319326246,0.0006425707441346857,0.0026866615618919036
1776792.6786583383,1.38,-3.37,2.99,0.0,1.38,-3.37,2.99,0.019804421383887532,0.07774409761885176,0.000642574714271275,0.0026866771470322403
1776792.6786585662,1.84,0.0,10.11,0.0,1.84,0.0,10.11,0.019804840795695784,0.07774409761885176,0.0006425792286104545,0.002686694868115155
1776792.6786587911,3.18,-2.91,15.4,0.0,3.18,-2.91,15.4,0.01980555602349341,0.07774344311794261,0.0006425836831652392,0.0026867123537351557
1776792.678658994,0.23,0.88,5.29,0.0,0.23,0.88,5.29,0.019805602666456253,0.07774362157797436,0.000642587699652149,0.0026867281197910362
1776792.6787953856,-0.38,0.11,8.62,0.0,-0.38,0.11,8.62,0.019753773810807618,0.07775862466776738,0.0006452819509451916,0.002697333752773516
1776792.6787956753,-0.77,-1.27,8.73,0.0,-0.77,-1.27,8.73,0.019753550786990676,0.07775825682329009,0.0006452876723897301,0.002697356274777718
1776792.678795895,-0.57,1.3,13.02,0.0,-0.57,1.3,13.02,0.01975342550547794,0.07775854255305598,0.0006452920140371495,0.0026973733654932254
1776792.6787961,0.0,-0.46,7.09,0.0,0.0,-0.46,7.09,0.01975342550547794,0.07775844830321142,0.0006452960613355913,0.002697389297496845
1776792.6787963023,0.92,-4.29,3.52,0.0,0.92,-4.29,3.52,0.019753611648920928,0.07775758030824358,0.0006453000580804649,0.0026974050301747984
1776792.6787965123,0.15,-2.41,13.06,0.0,0.15,-2.41,13.06,0.019753643150907014,0.07775707417633379,0.0006453042066070763,0.0026974213601899237
1776792.678796733,-2.07,-2.91,12.6,0.0,-2.07,-2.91,12.6,0.019753186253365133,0.07775643187109375,0.0006453085665984982,0.0026974385228578403
1776792.6787969365,1.46,-0.38,6.28,0.0,1.46,-0.38,6.28,0.019753483354579663,0.07775635454338038,0.0006453125863134954,0.002697454345808095
1776792.6787971363,0.23,1.46,13.41,0.0,0.23,1.46,13.41,0.019753529301378882,0.07775664620567108,0.0006453165324502114,0.002697469879151622
1776792.678797348,0.57,-2.03,16.01,0.0,0.57,-2.03,16.01,0.019753649937920278,0.07775621657026927,0.0006453207131730332,0.0026974863357148485
1776792.6787975414,2.34,0.96,6.82,0.0,2.34,0.96,6.82,0.01975410268642009,0.07775640231324354,0.0006453245352415616,0.0026975013801996766
1776792.678797732,0.84,1.19,5.25,0.0,0.84,1.19,5.25,0.019754262864589697,0.07775662923231716,0.0006453283021483088,0.0026975162074788974
1776792.6787979426,2.84,-3.22,17.43,0.0,2.84,-3.22,17.43,0.019754860624670988,0.07775595149025316,0.0006453324601296796,0.0026975325734661802
1776792.6787981442,-0.27,2.64,6.97,0.0,-0.27,2.64,6.97,0.01975480618420989,0.07775648379698391,0.0006453364433176707,0.00269754825161
1776792.678798344,1.84,-0.73,8.39,0.0,1.84,-0.73,8.39,0.01975517375860364,0.07775633796583857,0.0006453403897828977,0.0026975637848919497
1776792.6789785922,2.76,-0.69,7.89,0.0,2.76,-0.69,7.89,0.02025265871081502,0.07763196672778573,0.000648990894475254,0.0027115568049128364
1776792.6789788925,1.57,-0.08,12.34,0.0,1.57,-0.08,12.34,0.020253130262717613,0.07763194269966331,0.000648996977533922,0.0027115801217856275
1776792.6789790993,0.61,-1.76,5.13,0.0,0.61,-1.76,5.13,0.02025325638242067,0.07763157881330696,0.000649001164967825,0.002711596172394919
1776792.6789792944,1.38,0.27,8.35,0.0,1.38,0.27,8.35,0.020253525637090215,0.07763163149356839,0.0006490051166753269,0.002711611319263965
1776792.6789794995,0.38,2.34,10.73,0.0,0.38,2.34,10.73,0.020253603584133098,0.07763211148325351,0.0006490092711713981,0.0027116272434574464
1776792.6789797102,-0.88,1.15,14.48,0.0,-0.88,1.15,14.48,0.02025341815780849,0.0776323538017459,0.0006490135388042274,0.0027116436015052147
1776792.678979913,0.42,-0.19,7.24,0.0,0.42,-0.19,7.24,0.02025350333191455,0.07763231527060267,0.0006490176461233725,0.002711659344988678
1776792.6789801158,2.11,-2.18,9.88,0.0,2.11,-2.18,9.88,0.020253931230399765,0.07763187317643312,0.0006490217535292934,0.002711675088382487
1776792.678980308,1.88,0.42,4.33,0.0,1.88,0.42,4.33,0.02025429235072807,0.07763195385225115,0.0006490256440807314,0.0027116900003381584
1776792.6789805102,3.03,1.15,13.18,0.0,3.03,1.15,13.18,0.020254905410110956,0.07763218653155489,0.0006490297422522862,0.0027117057076452102
1776792.6789807044,0.34,0.65,6.66,0.0,0.34,0.65,6.66,0.02025497143156827,0.07763231274904682,0.0006490336753779679,0.0027117207823464527
1776792.678980916,0.77,-1.0,11.0,0.0,0.77,-1.0,11.0,0.020255134396720685,0.07763210110599174,0.0006490379622364927,0.002711737212641503
1776792.6789811184,0.54,-0.08,7.43,0.0,0.54,-0.08,7.43,0.020255243654828527,0.0776320849196054,0.0006490420604764846,0.0027117529199279958
1776792.678981331,0.88,-0.04,16.86,0.0,0.88,-0.04,16.86,0.020255430720280864,0.0776320764166303,0.0006490463662620641,0.002711769422518326
1776792.678981531,-0.27,0.73,3.52,0.0,-0.27,0.73,3.52,0.02025537671986968,0.07763222241774201,0.000649050417368255,0.0027117849490810356
1776792.6789817335,0.23,0.73,11.76,0.0,0.23,0.73,11.76,0.020255423309281474,0.0776323702884838,0.0006490545203606795,0.002711800674500462
1776792.6790039446,0.11,0.88,7.82,0.0,0.11,0.88,7.82,0.020257866531610495,0.07765191606711597,0.0006495044701047554,0.002713525409911611
1776792.6790049337,-0.23,-1.42,11.72,0.0,-0.23,-1.42,11.72,0.020257639046758417,0.07765051159542054,0.0006495245062178944,0.002713602211281802
1776792.679005204,0.0,-0.54,3.14,0.0,0.0,-0.54,3.14,0.020257639046758417,0.0776503656245768,0.0006495299821894938,0.002713623201447332
1776792.679005411,0.11,-3.41,7.43,0.0,0.11,-3.41,7.43,0.020257661815267062,0.07764965980080887,0.0006495341752508404,0.002713639273874153
1776792.6790056045,0.57,0.15,6.66,0.0,0.57,0.15,6.66,0.020257772100158042,0.0776496888231486,0.0006495380947704677,0.0027136542977118133
1776792.679005828,4.06,-0.42,14.63,0.0,4.06,-0.42,14.63,0.020258679580874746,0.07764959494583308,0.0006495426229382179,0.0027136716537487773
1776792.6790061167,0.96,-0.3,3.6,0.0,0.96,-0.3,3.6,0.020258956742472953,0.07764950833283364,0.0006495484719015811,0.002713694071938183
1776792.67900644,-0.19,-0.57,6.05,0.0,-0.19,-0.57,6.05,0.020258895296137787,0.07764932399382814,0.0006495550236640573,0.0027137191838665386
1776792.6790082785,2.26,1.04,12.3,0.0,2.26,1.04,12.3,0.020263050149660563,0.07765123596182091,0.0006495922758787902,0.002713861940287461
1776792.6790106092,2.72,-1.15,12.53,0.0,2.72,-1.15,12.53,0.020269389476161456,0.07764855573186649,0.0006496395164221223,0.0027140429107091915
1776792.6790108397,-0.23,0.34,5.36,0.0,-0.23,0.34,5.36,0.020269336460623896,0.07764863410266115,0.0006496441885515504,0.002714060808900834
1776792.6790110562,1.11,-1.53,10.77,0.0,1.11,-1.53,10.77,0.02026957681169734,0.0776483028079383,0.0006496485775736629,0.002714077622281853
1776792.6790112583,0.46,-0.34,7.05,0.0,0.46,-0.34,7.05,0.020269669776316737,0.07764823409495875,0.0006496526740130892,0.002714093314756917
1776792.6790114676,0.57,-0.15,19.84,0.0,0.57,-0.15,19.84,0.020269789085723466,0.07764820269774644,0.0006496569167788967,0.0027141095676709473
1776792.679011669,-0.04,0.8,6.13,0.0,-0.04,0.8,6.13,0.020269781029783197,0.07764836381655185,0.0006496609990825284,0.002714125205935472
1776792.679011861,2.22,1.53,6.44,0.0,2.22,1.53,6.44,0.02027020745910705,0.0776486577070318,0.0006496648926910245,0.0027141401210997083
1776792.6790120604,2.11,-0.96,5.52,0.0,2.11,-0.96,5.52,0.02027062798850239,0.07764846637612208,0.0006496689326886222,0.002714155596674407
1776792.6790122706,0.5,-3.33,14.79,0.0,0.5,-3.33,14.79,0.020270733111538,0.07764776625670491,0.0006496731945306197,0.0027141719218122017
1776792.6790124755,2.8,-0.19,4.37,0.0,2.8,-0.19,4.37,0.020271306806243963,0.0776477273274213,0.0006496773479382617,0.002714187831130094
1776792.6790126741,5.32,-0.3,5.4,0.0,5.32,-0.3,5.4,0.020272363382391637,0.07764766774605959,0.0006496813741216465,0.0027142032523093536
1776792.6790128823,-0.57,-3.79,7.55,0.0,-0.57,-3.79,7.55,0.020272244736552245,0.07764687885530293,0.0006496855938014591,0.0027142194145534206
1776792.6790130911,-0.46,-3.22,9.73,0.0,-0.46,-3.22,9.73,0.02027214866597206,0.07764620636124164,0.0006496898276212068,0.0027142356308927557
1776792.6790132886,0.54,1.19,10.3,0.0,0.54,1.19,10.3,0.0202722552837804,0.07764644131530077,0.0006496938301831114,0.0027142509614360866
1776792.6790134872,-0.15,1.07,5.29,0.0,-0.15,1.07,5.29,0.020272225493099545,0.07764665382215753,0.0006496978563391107,0.0027142663824139767
1776792.6790136963,0.38,-3.41,11.61,0.0,0.38,-3.41,11.61,0.020272304944228384,0.07764594085281715,0.0006497020949115108,0.0027142826167762153
1776792.6790355223,1.61,3.26,11.61,0.0,1.61,3.26,11.61,0.0203074448206462,0.07771709364606068,0.0006501453254092493,0.0027159788708546466
1776792.6790358834,1.46,-1.8,11.0,0.0,1.46,-1.8,11.0,0.020307972056325528,0.07771644362946972,0.0006501526590307855,0.002716006935842285
1776792.6790931283,-0.57,-2.49,3.07,0.0,-0.57,-2.49,3.07,0.020275342459790412,0.07757390381302684,0.0006513133191081088,0.0027204476466897816
1776792.6794044003,1.61,-4.9,14.14,0.0,1.61,-4.9,14.14,0.020776490357238765,0.07604867108166216,0.0006577804585235665,0.002744119467569483
1776792.6796327168,0.73,2.03,9.31,0.0,0.73,2.03,9.31,0.020943161419127106,0.07651215362362564,0.0006625621283222306,0.0027615884564623776
1776792.6797855808,1.61,-0.38,6.89,0.0,1.61,-0.38,6.89,0.021189272503834188,0.07645406529307365,0.0006658012058626483,0.002773275532822343
1776792.6797858817,1.84,-3.48,12.26,0.0,1.84,-3.48,12.26,0.021189826007466734,0.07645301844924687,0.0006658075801265984,0.0027732985312046423
1776792.6797860912,0.73,-0.23,7.66,0.0,0.73,-0.23,7.66,0.021189978977199615,0.07645297025330364,0.0006658120204353982,0.002773314551739488
1776792.6797862935,-1.11,1.3,3.68,0.0,-1.11,1.3,3.68,0.02118975439108905,0.07645323328208177,0.0006658163077547878,0.00277333002050913
1776792.6798122393,1.8,-1.11,7.78,0.0,1.8,-1.11,7.78,0.021236456679180234,0.07642443353775888,0.0006663673028202695,0.0027753129071270664
1776792.67984641,3.1,-0.88,15.09,0.0,3.1,-0.88,15.09,0.02134238582104441,0.07639436332974582,0.0006670965868897397,0.0027779233553047377
1776792.6798467166,-0.27,1.04,9.08,0.0,-0.27,1.04,9.08,0.021342303028795834,0.07639468223322182,0.0006671031312499529,0.0027779467808140765
1776792.6798469306,0.69,-1.84,8.58,0.0,0.69,-1.84,8.58,0.02134245066903528,0.07639428852591663,0.0006671076979231807,0.0027779631270040046
1776792.6798471343,1.19,-1.23,8.27,0.0,1.19,-1.23,8.27,0.021342693103942986,0.0763940379419364,0.0006671120460020318,0.002777978690517902
1776792.6798473361,1.72,0.3,10.54,0.0,1.72,0.3,10.54,0.021343040310312027,0.07639409850118682,0.0006671163543971076,0.0027779941117490395
1776792.679847535,0.92,-1.68,8.66,0.0,0.92,-1.68,8.66,0.021343223240692134,0.07639376445440575,0.0006671205982274773,0.0027780093016842237
1776792.6798477354,-0.3,2.37,8.85,0.0,-0.3,2.37,8.85,0.02134316310053688,0.07639423956163227,0.0006671248768312857,0.0027780246162223167
1776792.6798479448,3.22,-1.84,11.99,0.0,3.22,-1.84,11.99,0.021343837094027516,0.07639385442249476,0.0006671293444111821,0.002778040606582753
1776792.679848152,-0.46,-0.88,4.06,0.0,-0.46,-0.88,4.06,0.021343741773162003,0.07639367206953465,0.0006671337672458323,0.00277805643682393
1776792.67984836,2.3,-0.77,15.36,0.0,2.3,-0.77,15.36,0.021344219984021005,0.07639351197285577,0.0006671382050883424,0.002778072320392183
1776792.6798485504,0.38,1.76,5.9,0.0,0.38,1.76,5.9,0.02134429235709828,0.07639384717447682,0.0006671422702255006,0.002778086870017985
1776792.6798487678,-2.41,-2.64,16.55,0.0,-2.41,-2.64,16.55,0.021343768269289253,0.07639327306998893,0.0006671469117229067,0.002778103482791059
1776792.6798489671,2.61,-0.46,6.28,0.0,2.61,-0.46,6.28,0.021344288450200078,0.07639318139059469,0.0006671511657042887,0.0027781187081836554
1776792.6798491767,-2.68,2.95,11.95,0.0,-2.68,2.95,11.95,0.021343726862687585,0.07639379955595359,0.0006671556382305857,0.002778134716319425
1776792.6798493832,2.11,-4.52,-0.15,0.0,2.11,-4.52,-0.15,0.021344162621535327,0.07639286608202382,0.0006671600462437184,0.002778150493033785
1776792.6799331936,-2.72,0.15,17.28,0.0,-2.72,0.15,17.28,0.021116198287345428,0.07640543764457106,0.0006689298036272464,0.002784554064622436
1776792.680066328,1.19,0.46,8.16,0.0,1.19,0.46,8.16,0.02127462825272228,0.07646667947992682,0.0006717621890200903,0.002794734412002678
1776792.6802898245,1.53,-2.99,3.33,0.0,1.53,-2.99,3.33,0.021616577841341453,0.07579842505510895,0.0006765934177130321,0.002811675091914819
1776792.6805406208,-0.54,4.75,15.29,0.0,-0.54,4.75,15.29,0.021481147827580524,0.07698970758356159,0.0006819808105757907,0.0028309838273916548
1776792.68085026,0.61,-5.52,18.7,0.0,0.61,-5.52,18.7,0.021670027705840717,0.07528049950487922,0.0006886906994200108,0.0028542936168700944
1776792.6810147276,-0.5,0.23,7.01,0.0,-0.5,0.23,7.01,0.02158779390156264,0.07531832705484713,0.0006922411922570038,0.002866681042001255
1776792.681165102,0.38,-0.57,6.82,0.0,0.38,-0.57,6.82,0.02164493616204704,0.07523261366412054,0.0006954960358894771,0.0028779940988615635
1776792.6812522942,-0.19,-0.5,11.34,0.0,-0.19,-0.5,11.34,0.021628369628451716,0.07518901752308021,0.0006973818627950657,0.002884550000886803
1776792.6812532402,2.84,-2.72,11.61,0.0,2.84,-2.72,11.61,0.021631056242622387,0.07518644442781816,0.0006974023255775404,0.002884621126579423
1776792.6812535073,-1.42,2.68,-1.49,0.0,-1.42,2.68,-1.49,0.021630677022039843,0.07518716013990352,0.0006974081021958087,0.002884641205817922
1776792.6812537129,1.07,0.77,19.15,0.0,1.07,0.77,19.15,0.021630897002760274,0.07518731844378646,0.000697412549280207,0.0028846566635379956
1776792.68128607,0.69,-1.23,7.59,0.0,0.69,-1.23,7.59,0.021653223452158227,0.07514751912094662,0.0006981131863783333,0.002887088224817757
1776792.6813577828,0.19,-3.33,15.71,0.0,0.19,-3.33,15.71,0.02166684887837614,0.07490871559828531,0.0006996669761192123,0.0028924601362780894
1776792.6813858512,-1.0,-0.15,1.46,0.0,-1.0,-0.15,1.46,0.021638780445791737,0.07490450533339765,0.0007002743427693638,0.002894562588336308
1776792.6814779984,1.0,-1.3,10.96,0.0,1.0,-1.3,10.96,0.021730927596799985,0.07478471403708693,0.0007022767858361754,0.002901453786673792
1776792.6816577036,0.57,-1.27,10.57,0.0,0.57,-1.27,10.57,0.021833359566517132,0.07455648842034873,0.0007062003543027386,0.002914851976084476
1776792.6816738478,0.8,-3.48,11.07,0.0,0.8,-3.48,11.07,0.021846274961717385,0.07450030645122764,0.0007065530458962185,0.002916054727209923
1776792.6817979557,0.88,-2.72,10.15,0.0,0.88,-2.72,10.15,0.021955489837564488,0.07416273319860933,0.0007092778937334593,0.0029252589018676136
1776792.681968372,3.07,-2.41,8.5,0.0,3.07,-2.41,8.5,0.02247866828227413,0.07375202959869069,0.0007131086281670306,0.002937827459567816
1776792.6820927144,4.14,-0.19,9.35,0.0,4.14,-0.19,9.35,0.022993445296306127,0.07372840456664574,0.0007159676854404462,0.0029469950170441838
1776792.6822298295,2.45,1.19,12.98,0.0,2.45,1.19,12.98,0.02332937736529854,0.07389157157158491,0.000719166496055397,0.002957126669500977
1776792.6823633197,1.04,0.73,6.86,0.0,1.04,0.73,6.86,0.02346820716280487,0.07398901941021917,0.0007222992714864055,0.0029670034777532967
1776792.6826177705,1.46,-0.11,9.16,0.0,1.46,-0.11,9.16,0.0238397053768858,0.07396102981874732,0.0007283653043437539,0.0029858229232938797
1776792.6828429524,1.19,-2.68,9.46,0.0,1.19,-2.68,9.46,0.02410767186665904,0.07335754226194706,0.0007337939162821689,0.003002341715813482
1776792.6830834013,1.0,-0.84,10.07,0.0,1.0,-0.84,10.07,0.02434812072897326,0.07315556521760311,0.0007396483942109399,0.0030199318882420086
1776792.6833677315,1.84,1.0,10.84,0.0,1.84,1.0,10.84,0.02487128833541641,0.07343989543849613,0.000746720053117243,0.003040813069934397
1776792.6835627838,2.37,0.15,8.39,0.0,2.37,0.15,8.39,0.02533356214873488,0.07346915327478211,0.000751661421209832,0.0030551433929916173
1776792.6837727523,2.64,-2.45,8.01,0.0,2.64,-2.45,8.01,0.0258878790866583,0.0729547303589062,0.0007570970613100777,0.0030704615909990336
1776792.683967745,1.99,-1.3,9.46,0.0,1.99,-1.3,9.46,0.02627591443480918,0.07270123993046594,0.0007622206711621852,0.0030846377975052744
1776792.6842284882,0.84,0.27,6.82,0.0,0.84,0.27,6.82,0.026494938817340823,0.07277164062485111,0.0007691290492749016,0.003103612516140599
1776792.684597082,0.8,-1.0,8.93,0.0,0.8,-1.0,8.93,0.026789813798386544,0.07240304689854396,0.0007790036065699236,0.0031302998249929247
1776792.684822755,2.11,2.8,14.79,0.0,2.11,2.8,14.79,0.027265983752440603,0.0730349311977626,0.0007851568019398944,0.0031467818343923464
1776792.6850048634,0.65,0.04,11.11,0.0,0.65,0.04,11.11,0.02738435426959762,0.07304221553727995,0.0007901437252889764,0.003160083441819181
1776792.6852589345,0.8,-2.07,9.31,0.0,0.8,-2.07,9.31,0.027587611137423605,0.0725162883917802,0.000797152939577219,0.0031785077338752797
1776792.685605375,0.96,-1.04,9.65,0.0,0.96,-1.04,9.65,0.02792019410291681,0.07215599017916255,0.0008068256280687751,0.003203505497616826
1776792.6857588552,1.42,-0.46,8.58,0.0,1.42,-0.46,8.58,0.028138135841581913,0.07208538933424287,0.0008111442719054717,0.0032145691702110905
1776792.6859887813,3.1,1.23,10.19,0.0,3.1,1.23,10.19,0.028850906693842226,0.07236819841433324,0.0008177778478256821,0.003231208506488615
1776792.6861729843,1.3,-0.5,10.04,0.0,1.3,-0.5,10.04,0.02909037063596766,0.07227609689813115,0.0008231363823105889,0.0032445219827075896
1776792.6864727484,1.19,0.96,12.53,0.0,1.19,0.96,12.53,0.029447089913301125,0.07256387043278673,0.0008319635626748296,0.0032662740259187684
1776792.6867451703,1.07,-1.95,6.89,0.0,1.07,-1.95,6.89,0.029738581308629317,0.07203264779644095,0.0008400650024512159,0.003285897294157431
1776792.6869380327,2.41,-3.03,8.96,0.0,2.41,-3.03,8.96,0.030203379860613454,0.07144827451324097,0.0008458901008845103,0.0032996769848360696
1776792.6871460895,1.88,-0.57,7.43,0.0,1.88,-0.57,7.43,0.030594526578206528,0.07132968215737498,0.0008522554991012016,0.0033145176077311834
1776792.687401668,1.95,0.77,14.33,0.0,1.95,0.77,14.33,0.03109290451742705,0.07152647754875947,0.0008602021748333942,0.0033327982325929545
1776792.6876112844,0.77,0.69,7.93,0.0,0.77,0.69,7.93,0.03125430922023948,0.07167111293179919,0.0008667535936532652,0.0033478216802332057
1776792.6877054477,0.54,-0.73,9.58,0.0,0.54,-0.73,9.58,0.03130515736527737,0.07160237377276649,0.0008697013884350125,0.003354563991134418
1776792.6877452848,0.65,-0.19,9.04,0.0,0.65,-0.19,9.04,0.031331051473971416,0.07159480472560976,0.0008709495263617291,0.003357416119835178
1776792.6879552922,0.42,0.38,7.85,0.0,0.42,0.38,7.85,0.03141925459029149,0.07167460754513745,0.0008775478029505803,0.003372468319231605
1776792.6882334116,0.92,-1.91,15.55,0.0,0.92,-1.91,15.55,0.031675124496687176,0.07114339936990291,0.0008863572715810571,0.0033922546832940476
1776792.688493778,0.11,-0.3,5.09,0.0,0.11,-0.3,5.09,0.03170376479625699,0.07106528946198523,0.0008946118654106549,0.0034107576940141104
1776792.688737831,0.77,1.19,12.11,0.0,0.77,1.19,12.11,0.03189168566837904,0.07135571262799204,0.0009023951295460368,0.003428172275504945
1776792.6889536208,2.37,-0.46,8.89,0.0,2.37,-0.46,8.89,0.03240310742054132,0.0712564493343234,0.00090938738860617,0.0034435486882355027
1776792.689172773,-0.38,-2.41,5.25,0.0,-0.38,-2.41,5.25,0.032319829631596776,0.07072829283075407,0.0009164703463713903,0.0034590489404533113
1776792.6892629722,0.08,-1.95,16.51,0.0,0.08,-1.95,16.51,0.032327045574784254,0.07055240421555936,0.0009193862229249723,0.003465412717210302
1776792.6892638775,0.88,1.3,8.27,0.0,0.88,1.3,8.27,0.032327842190861676,0.07055358103476464,0.0009194154875600151,0.0034654765855250433
1776792.6892642307,1.3,-0.27,5.67,0.0,1.3,-0.27,5.67,0.032328301356174025,0.07055348566966131,0.0009194269060481612,0.0034655015053044933
1776792.6892983518,0.69,-1.3,12.79,0.0,0.69,-1.3,12.79,0.03235184491379184,0.07050912824226543,0.0009205307865188429,0.003467907354178919
1776792.6892988116,0.15,-1.57,11.61,0.0,0.15,-1.57,11.61,0.03235191388987002,0.07050840629264712,0.0009205456632397883,0.0034679397768012186
1776792.6892991734,-1.46,-0.3,10.34,0.0,-1.46,-0.3,10.34,0.03235138563439247,0.07050829774700106,0.0009205573685799717,0.0034679652880303265
1776792.6892995038,-0.3,3.83,11.95,0.0,-0.3,3.83,11.95,0.03235128651838747,0.07050956312799826,0.0009205680570142264,0.0034679885834510327
1776792.6893048845,2.34,-2.03,8.89,0.0,2.34,-2.03,8.89,0.0323638773942366,0.07049864027416333,0.0009207421978528022,0.00346836791662506
1776792.6893051623,2.91,0.5,7.28,0.0,2.91,0.5,7.28,0.03236468569608403,0.07049877915764227,0.0009207511876930907,0.0034683874988564807
1776792.6894085088,0.65,0.5,13.29,0.0,0.65,0.5,13.29,0.032431860945653146,0.0705504524265416,0.000924102908236191,0.0034756786438548916
1776792.6895078914,0.27,0.04,5.09,0.0,0.27,0.04,5.09,0.032458694246597565,0.07055442773038521,0.0009273287375361236,0.0034826905260484124
1776792.6895510815,0.84,-1.34,15.36,0.0,0.84,-1.34,15.36,0.03249497391749171,0.07049655301729217,0.0009287321982021241,0.0034857352781229828
1776792.6895732963,1.76,-1.38,11.3,0.0,1.76,-1.38,11.3,0.032534072031266965,0.07046589654171839,0.0009294549373213575,0.0034873006665549506
1776792.689574329,0.77,-1.61,3.33,0.0,0.77,-1.61,3.33,0.03253486713627351,0.07046423404943197,0.0009294885329521982,0.003487373428198165
1776792.6898731969,0.88,0.23,8.08,0.0,0.88,0.23,8.08,0.032797870917711386,0.07053297367412596,0.0009392907648550044,0.0035084534722803844
1776792.6902288566,3.56,-7.89,5.55,0.0,3.56,-7.89,5.55,0.03406401963206006,0.06772681823698805,0.0009514059656029484,0.003532541175605578
1776792.6905835029,-0.11,1.57,20.42,0.0,-0.11,1.57,20.42,0.03402500854572279,0.06828361283289273,0.0009634728069302528,0.003556757702111438
1776792.690763348,0.88,-3.03,4.56,0.0,0.88,-3.03,4.56,0.034183272270020076,0.06773868205491458,0.0009696205023599363,0.0035689401749534836
1776792.6909738057,0.69,0.08,9.27,0.0,0.69,0.08,9.27,0.0343284880928695,0.06775551867205655,0.0009768451974984619,0.0035831998465426897
1776792.6910357361,-0.96,0.38,16.24,0.0,-0.96,0.38,16.24,0.034269034918397646,0.06777905222028499,0.0009789674921984468,0.0035873974296855957
1776792.6912787098,-0.5,-0.38,7.97,0.0,-0.5,-0.38,7.97,0.03414754807949064,0.06768672222271567,0.0009872644475436513,0.003603843521523224
1776792.6914638989,-0.46,2.57,8.35,0.0,-0.46,2.57,8.35,0.03406236110720782,0.06816265813307841,0.0009935724245252325,0.00361646650080389
1776792.6917502377,1.8,-4.52,7.78,0.0,1.8,-4.52,7.78,0.03457777103874831,0.06686840652721009,0.0010034733837496236,0.003635613523487452
1776792.6919037553,-0.19,-0.57,5.32,0.0,-0.19,-0.57,5.32,0.03454860269790514,0.06678090150468058,0.0010087772017451384,0.0036458655661027297
1776792.6921781953,0.77,0.8,15.17,0.0,0.77,0.8,15.17,0.034759921529330294,0.06700045353733011,0.001018316716028266,0.00366425317330593
1776792.692476135,1.27,0.88,6.24,0.0,1.27,0.88,6.24,0.03513830486917866,0.06726264041848488,0.0010287858098495337,0.0036842933800213364
1776792.6927351633,-0.04,-0.5,12.18,0.0,-0.04,-0.5,12.18,0.035127943737898,0.06713312627747663,0.0010378849407667342,0.003701682758387389
1776792.6929232057,1.8,-1.91,5.02,0.0,1.8,-1.91,5.02,0.03546642007539047,0.06677396527491518,0.0010445541318617828,0.0037142390957241125
1776792.693089882,-2.8,1.49,10.23,0.0,-2.8,1.49,10.23,0.034999726603273294,0.06702231287257754,0.0010503877546945092,0.0037254101228326223
1776792.6932398896,1.88,-0.96,8.04,0.0,1.88,-0.96,8.04,0.03528174100676551,0.06687830551760279,0.0010556802861541846,0.0037354423810438547
1776792.6933267692,0.65,-0.73,16.01,0.0,0.65,-0.73,16.01,0.035338212740607555,0.06681488341651864,0.0010587504556070172,0.003741247230756139
1776792.693327084,-2.37,1.04,10.65,0.0,-2.37,1.04,10.65,0.03533746669534593,0.06681521079503007,0.0010587615793832138,0.003741268263317919
1776792.693327304,1.42,-2.34,4.37,0.0,1.42,-2.34,4.37,0.03533777913078665,0.06681469593662775,0.0010587693545765918,0.0037412829642186033
1776792.6933275303,-1.27,0.08,10.3,0.0,-1.27,0.08,10.3,0.0353374917153269,0.0668147140415386,0.0010587773518533066,0.0037412980851491188
1776792.693327773,-1.76,-0.88,9.23,0.0,-1.76,-0.88,9.23,0.035337064722552894,0.0668145005451516,0.0010587859249619948,0.003741314294983739
1776792.693327995,2.64,-0.96,6.63,0.0,2.64,-0.96,6.63,0.035337651120498775,0.06681428730953493,0.0010587937741763998,0.003741329135802237
1776792.6933282062,1.38,-0.88,12.18,0.0,1.38,-0.88,12.18,0.03533794254530221,0.06681410147342838,0.0010588012367510086,0.0037413432454300546
1776792.6933284162,0.15,-2.3,12.18,0.0,0.15,-2.3,12.18,0.0353379740472883,0.06681361844297505,0.0010588086581934536,0.0037413572771745783
1776792.693330295,1.11,-0.69,10.8,0.0,1.11,-0.69,10.8,0.035340059415902944,0.06681232213275513,0.001058875051932864,0.0037414827981832694
1776792.693330538,0.46,1.0,7.62,0.0,0.46,1.0,7.62,0.035340171230491255,0.06681256520794711,0.0010588836422517703,0.0037414990386603836
1776792.6933307608,1.72,-1.99,14.4,0.0,1.72,-1.99,14.4,0.03534055447904393,0.06681212179828441,0.0010588915167961627,0.003741513925665605
1776792.6933309631,1.04,-0.15,8.73,0.0,1.04,-0.15,8.73,0.03534076490206644,0.06681209144881001,0.0010588986672870938,0.0037415274437446653
1776792.6933311636,0.5,-2.22,8.89,0.0,0.5,-2.22,8.89,0.03534086513565853,0.06681164641166111,0.0010589057519708144,0.0037415408372872922
1776792.6933313634,0.11,3.64,10.57,0.0,0.11,3.64,10.57,0.03534088711021468,0.06681237356970092,0.0010589128119736155,0.0037415541843077867
1776792.6933315557,0.61,0.27,8.16,0.0,0.61,0.27,8.16,0.035341004424262794,0.06681242549559106,0.0010589196086888504,0.0037415670335472933
1776792.6933317566,3.29,-1.46,8.85,0.0,3.29,-1.46,8.85,0.0353416654933244,0.06681213213363667,0.0010589267099902616,0.0037415804582991152
1776792.6933319652,1.53,-0.3,11.38,0.0,1.53,-0.3,11.38,0.035341984676197175,0.06681206954875965,0.0010589340829028097,0.0037415943963829677
1776792.6933321664,-0.34,2.37,9.81,0.0,-0.34,2.37,9.81,0.0353419162798673,0.06681254631141205,0.0010589411924832935,0.0037416078367740195
1776792.6933323587,0.88,0.11,8.39,0.0,0.88,0.11,8.39,0.035342085519805555,0.06681256746640434,0.0010589479894064428,0.00374162068604083
1776792.693332559,3.14,-0.65,3.91,0.0,3.14,-0.65,3.91,0.03534271425567568,0.06681243731407453,0.0010589550662319842,0.003741634064186024
1776792.6933327697,1.46,-0.3,12.34,0.0,1.46,-0.3,12.34,0.03534302189480514,0.06681237410055478,0.0010589625134213596,0.0037416481423371236
1776792.6933329718,1.07,-0.61,4.67,0.0,1.07,-0.61,4.67,0.03534323813859374,0.06681225082138557,0.0010589696561837114,0.0037416616448924904
1776792.693333189,-2.45,-1.0,10.96,0.0,-2.45,-1.0,10.96,0.035342705922666945,0.06681203359039505,0.0010589773337147269,0.0037416761585367265
1776792.6933333909,0.3,-2.76,7.16,0.0,0.3,-2.76,7.16,0.03534276648191736,0.06681147644529123,0.0010589844681528793,0.0037416896453798354
1776792.6933336097,-0.34,-2.03,10.5,0.0,-0.34,-2.03,10.5,0.03534269206924365,0.06681103215785701,0.0010589922032829178,0.0037417042676961185
1776792.693335935,2.76,-0.77,3.79,0.0,2.76,-0.77,3.79,0.035349109841045,0.06680924169253562,0.0010590743998482586,0.0037418596178654677
1776792.693336173,0.57,-4.29,4.75,0.0,0.57,-4.29,4.75,0.03534924547420815,0.0668082208745182,0.0010590828113043616,0.0037418755150765586
1776792.693336436,-1.3,0.34,8.23,0.0,-1.3,0.34,8.23,0.035348903445992626,0.06680831032805148,0.001059092111552336,0.0037418930922513
1776792.6933366475,-0.11,-0.88,4.02,0.0,-0.11,-0.88,4.02,0.03534888019086794,0.06680812428705397,0.0010590995846670307,0.0037419072161718496
1776792.693336849,1.11,-1.07,8.96,0.0,1.11,-1.07,8.96,0.035349104001652455,0.06680790854152295,0.0010591067121541466,0.003741920686739798
1776792.693492839,-0.88,0.57,11.99,0.0,-0.88,0.57,11.99,0.0352118327911012,0.0668968228483573,0.0010645994063734228,0.003752355922938011
1776792.6936332132,-1.3,3.03,14.06,0.0,-1.3,3.03,14.06,0.035029346512164924,0.0673221562523395,0.0010695166179877107,0.003761806207387592
1776792.6938130076,-1.53,-0.54,4.83,0.0,-1.53,-0.54,4.83,0.034754261104390026,0.06722506728488954,0.0010757652389601397,0.003773892896960637
1776792.6940434123,-0.69,0.96,7.16,0.0,-0.69,0.96,7.16,0.03459528180537746,0.06744625587482007,0.0010837361572942864,0.003789432836786726
1776792.694123393,-0.04,-0.3,9.65,0.0,-0.04,-0.3,9.65,0.03459208258194849,0.06742226169910284,0.0010865028523206076,0.003794825308768265
1776792.6942748898,2.14,2.18,12.49,0.0,2.14,2.18,12.49,0.034916285832878216,0.06775252482388171,0.0010917925595063133,0.003805089602603124
1776792.6943468237,0.5,-1.49,5.94,0.0,0.5,-1.49,5.94,0.034952252812217935,0.06764534322544935,0.0010943068134158607,0.0038099555999275597
1776792.6945365083,-0.19,1.15,8.04,0.0,-0.19,1.15,8.04,0.03491621274501087,0.06786348047433424,0.001100929880015579,0.003822828254649668
1776792.6947378572,0.23,3.48,16.93,0.0,0.23,3.48,16.93,0.03496252299519257,0.06856417469447479,0.0011079695460455396,0.0038366335767522908
1776792.6950848785,-0.96,-1.15,7.89,0.0,-0.96,-1.15,7.89,0.0346293825772591,0.068165100235492,0.0011199866783211292,0.003860288316315758
1776792.695307879,0.77,-1.15,9.35,0.0,0.77,-1.15,9.35,0.03480109298834578,0.06790864962153137,0.0011277473406370961,0.003875431981436348
1776792.6955103425,-1.42,2.41,14.33,0.0,-1.42,2.41,14.33,0.03451359485508877,0.06839658659417179,0.0011347350829559886,0.003889279791976473
1776792.6956528581,0.96,2.61,13.21,0.0,0.96,2.61,13.21,0.034650409866590084,0.06876855240669096,0.0011396733081897622,0.003899080386026942
1776792.695833007,-1.49,-1.46,8.77,0.0,-1.49,-1.46,8.77,0.03438198787858713,0.06850553488824511,0.0011458671884165166,0.003911421588620169
1776792.6960137796,-0.34,1.49,9.54,0.0,-0.34,1.49,9.54,0.03432052522664893,0.06877488592173898,0.0011520713957586981,0.003923854197077514
1776792.696283069,0.34,-0.38,9.88,0.0,0.34,-0.38,9.88,0.034412083609495346,0.06867255596444005,0.0011613382037753482,0.003942346985812908
1776792.6965962634,0.34,-1.38,10.84,0.0,0.34,-1.38,10.84,0.03451856972882528,0.06824034759774798,0.0011721492288790016,0.003963719485217054
1776792.696598467,-1.07,-1.23,7.93,0.0,-1.07,-1.23,7.93,0.03451621197396893,0.06823763728141778,0.0011722252856700337,0.0039638698474793775
1776792.6965986886,0.15,3.22,12.57,0.0,0.15,3.22,12.57,0.03451624522218485,0.06823835100978606,0.001172232936360525,0.003963884972835564
1776792.696598891,0.19,1.68,10.38,0.0,0.19,1.68,10.38,0.034516283664852425,0.06823869092389935,0.0011722399200343081,0.003963898779558253
1776792.6965990902,0.84,-1.88,6.13,0.0,0.84,-1.88,6.13,0.034516451079398436,0.06823831623420114,0.0011722467992676265,0.003963912379661506
1776792.696599296,-0.11,-1.65,8.93,0.0,-0.11,-1.65,8.93,0.034516428438946645,0.0682379766274243,0.0011722539035179357,0.0039639264245580515
1776792.6965995012,0.27,-4.02,11.95,0.0,0.27,-4.02,11.95,0.03451648382237185,0.06823715202976012,0.0011722609836701584,0.0039639404216217766
1776792.696599699,1.46,-1.38,3.22,0.0,1.46,-1.38,3.22,0.034516772765200626,0.06823687891941511,0.0011722678147482151,0.00396395392611275
1776792.696599903,5.86,-0.04,11.19,0.0,5.86,-0.04,11.19,0.03451796796871354,0.06823687076102936,0.001172274855020668,0.003963967843680607
1776792.6966000989,2.91,-1.49,3.52,0.0,2.91,-1.49,3.52,0.03451853777747606,0.0682365790032781,0.001172281614115271,0.003963981205124126
1776792.6966002954,0.11,-0.08,9.69,0.0,0.11,-0.08,9.69,0.034518559393473015,0.06823656328255305,0.001172288397325042,0.003963994614227256
1776792.6966004902,0.11,-1.38,8.27,0.0,0.11,-1.38,8.27,0.034518580830190375,0.06823629434918979,0.0011722951242801418,0.003964007912065036
1776792.6966006863,0.27,-1.11,5.79,0.0,0.27,-1.11,5.79,0.034518633761908904,0.06823607674101362,0.0011723018914305354,0.003964021289297656
1776792.6966009017,-1.42,-1.34,14.14,0.0,-1.42,-1.34,14.14,0.034518327938858465,0.06823578814743081,0.0011723093255857089,0.003964035985126445
1776792.6966010975,0.92,2.26,10.07,0.0,0.92,2.26,10.07,0.03451850808458407,0.06823623067932198,0.0011723160846744977,0.003964049346501759
1776792.6966012944,0.5,-1.23,5.36,0.0,0.5,-1.23,5.36,0.03451860657194634,0.06823598840041081,0.0011723228839675185,0.003964062787266777
1776792.6966014917,1.07,-0.46,8.54,0.0,1.07,-0.46,8.54,0.03451881758403037,0.06823589768493543,0.0011723296913391417,0.003964076243901334
1776792.6966016968,1.53,-0.19,10.19,0.0,1.53,-0.19,10.19,0.034519131423439875,0.068235858711414,0.0011723367720344504,0.003964090240699769
1776792.6966018933,2.14,-0.23,7.32,0.0,2.14,-0.23,7.32,0.034519551952835216,0.06823581351432945,0.0011723435554392683,0.003964103649655563
1776792.696602081,1.46,0.04,9.5,0.0,1.46,0.04,9.5,0.03451982593862344,0.0682358210207894,0.0011723500334815417,0.003964116454892006
1776792.6966022765,0.27,-0.57,5.98,0.0,0.27,-0.57,5.98,0.03451987874461342,0.06823570954147722,0.0011723567848014348,0.003964129800277911
1776792.6966025045,-0.11,-2.07,12.91,0.0,-0.11,-2.07,12.91,0.03451985367108141,0.06823523770319294,0.001172364653298309,0.003964145353899885
1776792.6966027152,-0.23,-0.15,9.77,0.0,-0.23,-0.15,9.77,0.03451980520738293,0.06823520609643306,0.0011723719270262702,0.0039641597318583795
1776792.6966029117,-0.15,0.57,8.93,0.0,-0.15,0.57,8.93,0.034519775731023446,0.06823531810659911,0.0011723787104750624,0.003964173140716821
1776792.6966031934,1.15,-0.69,8.62,0.0,1.15,-0.69,8.62,0.03452009971486409,0.06823512371629473,0.0011723884356528754,0.003964192364262428
1776792.6966034085,2.3,0.3,12.6,0.0,2.3,0.3,12.6,0.03452059452654798,0.06823518825694914,0.0011723958622587478,0.003964207044074776
1776792.6966036179,-0.57,0.92,12.98,0.0,-0.57,0.92,12.98,0.03452047521714125,0.0682353808265179,0.0011724030879033409,0.003964221326746362
1776792.6966038262,-0.73,-0.57,7.24,0.0,-0.73,-0.57,7.24,0.03452032309724022,0.06823526204796504,0.0011724102813665369,0.003964235545844046
1776792.696604061,-0.88,-1.57,9.08,0.0,-0.88,-1.57,9.08,0.03452011656714608,0.06823489357950162,0.001172418383006224,0.003964251560115631
1776792.6966042707,0.46,-1.11,6.66,0.0,0.46,-1.11,6.66,0.03452021306613465,0.06823466072324659,0.001172425624670672,0.003964265874410729
1776792.6966044833,2.91,-4.86,10.8,0.0,2.91,-4.86,10.8,0.03452083165757363,0.06823362761177118,0.0011724329629149777,0.003964280379131655
1776792.6966046728,2.26,0.19,8.31,0.0,2.26,0.19,8.31,0.03452125998213892,0.06823366362135853,0.0011724395055272233,0.00396429331105834
1776792.6966048703,2.34,-0.84,7.59,0.0,2.34,-0.84,7.59,0.03452172199264173,0.06823349777143445,0.0011724463215093328,0.003964306783106466
1776792.6966050675,1.19,-0.04,8.66,0.0,1.19,-0.04,8.66,0.03452195666963239,0.06823348988313224,0.0011724531295000075,0.003964320239266187
1776792.6966052556,1.19,0.73,8.2,0.0,1.19,0.73,8.2,0.03452218054095288,0.06823362721595909,0.0011724596240597922,0.003964333075864697
1776792.6966054703,-1.04,-1.65,14.4,0.0,-1.04,-1.65,14.4,0.034521957284305294,0.0682332730107009,0.0011724670348833032,0.003964347723491414
1776792.6966056665,0.42,-2.11,5.29,0.0,0.42,-2.11,5.29,0.034522039720322986,0.0682328588678501,0.0011724738107392013,0.003964361115979893
1776792.696605872,-0.3,2.26,14.36,0.0,-0.3,2.26,14.36,0.03452197811333468,0.06823332297382871,0.0011724809000562082,0.0039643751281449955
1776792.6966060596,0.08,1.27,9.23,0.0,0.08,1.27,9.23,0.03452199312625458,0.06823356130393217,0.0011724873785051793,0.003964387932957377
1776792.696606255,2.34,-4.41,5.63,0.0,2.34,-4.41,5.63,0.034522450233344035,0.06823269983287895,0.001172494122290114,0.003964401261867987
1776792.6966064775,-1.04,-1.23,10.84,0.0,-1.04,-1.23,10.84,0.034522218743804886,0.0682324260519817,0.0011725018064559865,0.003964416449457277
1776792.6966066812,1.15,0.23,16.05,0.0,1.15,0.23,16.05,0.03452245302964006,0.06823247290914873,0.0011725088396053259,0.0039644303502415395
1776792.696606872,0.57,0.08,7.43,0.0,0.57,0.08,7.43,0.03452256172196944,0.0682324881642125,0.0011725154226538339,0.003964443361378518
1776792.6966070705,2.49,-1.99,2.14,0.0,2.49,-1.99,2.14,0.034523056247271644,0.06823209294117981,0.001172522279089506,0.003964456912581884
1776792.6966072689,0.65,1.72,20.3,0.0,0.65,1.72,20.3,0.0345231851888821,0.06823243414051824,0.001172529127512731,0.0039644704479664125
1776792.6966074852,-0.38,-1.11,14.9,0.0,-0.38,-1.11,14.9,0.03452310299500828,0.06823219404788682,0.0011725365948484455,0.003964485206567329
1776792.696607682,1.15,-0.84,4.14,0.0,1.15,-0.84,4.14,0.03452332924818625,0.06823202878469595,0.001172543387033625,0.003964498630665896
1776792.6966078812,1.57,0.65,11.57,0.0,1.57,0.65,11.57,0.034523642153944864,0.06823215833166607,0.0011725502677001464,0.00396451222954186
1776792.696608098,-2.26,-1.53,10.69,0.0,-2.26,-1.53,10.69,0.03452315226430078,0.06823182668071233,0.0011725577511226134,0.003964527019836236
1776792.6966083064,0.27,-4.21,13.98,0.0,0.27,-4.21,13.98,0.03452320852782582,0.06823094938648858,0.0011725649451870854,0.003964541238035233
1776792.6966085467,1.04,-0.42,4.25,0.0,1.04,-0.42,4.25,0.03452345842029904,0.06823084846837439,0.00117257324052594,0.003964557632627035
1776792.6966087602,2.41,-0.46,7.93,0.0,2.41,-0.46,7.93,0.034523972969036594,0.06823075025575229,0.0011725806115909635,0.003964572200281145
1776792.6966089606,0.96,0.08,13.41,0.0,0.96,0.08,13.41,0.03452416541753341,0.06823076629312702,0.001172587532553191,0.003964585878310739
1776792.6966091779,-0.34,-3.18,13.95,0.0,-0.34,-3.18,13.95,0.034524091558996634,0.06823007549857714,0.0011725950322557977,0.003964600699997624
1776792.6966093765,1.53,-0.96,9.61,0.0,1.53,-0.96,9.61,0.03452439542394136,0.06822988483821966,0.0011726018889574364,0.003964614250762451
1776792.6966095737,0.23,-0.04,5.17,0.0,0.23,-0.04,5.17,0.03452444078167905,0.06822987694991746,0.0011726086974379968,0.003964627706209674
1776792.696609789,-0.65,-2.03,20.3,0.0,-0.65,-2.03,20.3,0.034524300792254554,0.06822943975217634,0.0011726161328795338,0.00396464240067122
1776792.6966099862,-1.15,2.91,5.09,0.0,-1.15,2.91,5.09,0.0345240740035661,0.06823001362616189,0.0011726229412877627,0.003964655856145397
1776792.6966102475,0.96,-1.27,2.49,0.0,0.96,-1.27,2.49,0.034524324790108994,0.06822968185646452,0.0011726319602836583,0.003964673680193351
1776792.6966104684,-0.54,1.34,6.24,0.0,-0.54,1.34,6.24,0.034524205473717345,0.06822997793788084,0.0011726395886236982,0.003964688756035516
1776792.6966107285,-1.76,2.68,22.33,0.0,-1.76,2.68,22.33,0.034523747747298376,0.06823067493038246,0.0011726485672779174,0.003964706500911937
1776792.6966109294,-0.46,0.27,8.93,0.0,-0.46,0.27,8.93,0.03452365531818946,0.06823072918225073,0.0011726555042142167,0.0039647202107065006
1776792.6967949586,-0.15,-0.42,1.65,0.0,-0.15,-0.42,1.65,0.034496050952002456,0.06815343695692712,0.001179003781697448,0.003977262426910914
1776792.6969628031,-0.38,-1.04,7.28,0.0,-0.38,-1.04,7.28,0.03443227001000201,0.06797887858934694,0.001184783051740742,0.0039886723135229216
1776792.6973285738,1.07,-0.57,12.34,0.0,1.07,-0.57,12.34,0.03482364461058755,0.06777038931613781,0.001197520519030837,0.0040134607331959405
1776792.697719849,-0.23,-0.23,10.69,0.0,-0.23,-0.23,10.69,0.034733651324641,0.06768039603019126,0.0012111109338813855,0.004039942390730378
1776792.6980758356,1.11,0.5,7.24,0.0,1.11,0.5,7.24,0.035128796501085205,0.06785838935291387,0.001223616316306335,0.0040640990711214384
1776792.6985127958,-0.65,-2.3,11.0,0.0,-0.65,-2.3,11.0,0.03484477233607325,0.06685338076902547,0.0012388420968721572,0.004093311341353973
1776792.6989140725,-1.07,1.3,11.8,0.0,-1.07,1.3,11.8,0.03441540634259584,0.06737504038726905,0.0012526521951293696,0.004120347370467487
1776792.6992543112,0.34,0.84,8.89,0.0,0.34,0.84,8.89,0.03453108749352398,0.06766084087779739,0.00126440100672952,0.004143368205601339
1776792.6996555978,1.49,-0.65,9.54,0.0,1.49,-0.65,9.54,0.035129004588816334,0.06740000456105912,0.0012784978069874107,0.004170414927044184
1776792.700032087,1.53,-3.26,11.07,0.0,1.53,-3.26,11.07,0.03570503313560041,0.06617264961823814,0.0012919403680004677,0.004195328218022253
1776792.7003853295,-0.04,0.92,7.78,0.0,-0.04,0.92,7.78,0.035690903435461246,0.06649763272143894,0.0013045479120814417,0.004218818008280209
1776792.7007411947,-0.23,2.84,11.07,0.0,-0.23,2.84,11.07,0.035609054460655924,0.06750828962773081,0.0013172199320874926,0.004242841853049299
1776792.7009179639,1.19,0.65,7.24,0.0,1.19,0.65,7.24,0.035819409827236116,0.06762318961787965,0.0013235517010663953,0.004254795551235342
1776792.7010906741,3.87,-2.72,14.25,0.0,3.87,-2.72,14.25,0.03648779860697686,0.06715341765899206,0.0013298535189440039,0.004266393636735217
1776792.701247912,0.77,-0.46,1.38,0.0,0.77,-0.46,1.38,0.03660887167556211,0.06708108829334374,0.001335609815607905,0.004276941316220559
1776792.7015516288,0.54,-0.54,11.15,0.0,0.54,-0.54,11.15,0.036772878782358014,0.06691708118654782,0.0013467783590479997,0.004297265162295804
1776792.7017879828,1.42,-6.7,2.68,0.0,1.42,-6.7,2.68,0.03710850156145169,0.06533350891899313,0.0013555491044156453,0.004312707003022096
1776792.7020541637,0.27,2.37,24.71,0.0,0.27,2.37,24.71,0.03718037038808687,0.06596435750834645,0.001365445806614361,0.004330265451073461
1776792.702338693,-0.69,1.19,8.2,0.0,-0.69,1.19,8.2,0.036984045177232465,0.06630294736474752,0.0013759688507704035,0.004349130581684553
1776792.702632989,2.45,-1.19,4.75,0.0,2.45,-1.19,4.75,0.037705070551019154,0.06595273504033684,0.001387065304887833,0.0043685402124742315
1776792.702923192,0.19,-1.07,12.07,0.0,0.19,-1.07,12.07,0.03776020910358056,0.06564221792854368,0.0013980234273846084,0.004387589775018968
1776792.7031379575,1.95,-1.15,13.98,0.0,1.95,-1.15,13.98,0.0381790019199252,0.06539523754967377,0.0014062229616098767,0.0044016344189722785
1776792.703413054,1.84,0.84,6.09,0.0,1.84,0.84,6.09,0.03868517970666289,0.06562631871318446,0.0014168651239161094,0.004419687997645094
1776792.7037235915,-0.61,-1.76,8.54,0.0,-0.61,-1.76,8.54,0.03849575188942253,0.06507977287983524,0.0014288194948233876,0.004439897701453497
1776792.7040729036,0.69,-1.27,9.84,0.0,0.69,-1.27,9.84,0.03873677723109721,0.06463614652631806,0.0014423507194139694,0.0044624758888463095
1776792.7043532208,-0.73,1.04,9.46,0.0,-0.73,1.04,9.46,0.038532145710196336,0.06492767636431383,0.0014531519407567797,0.004480676230165473
1776792.7044887869,0.96,-1.49,6.02,0.0,0.96,-1.49,6.02,0.038662289173807936,0.06472568286349999,0.0014583932368236888,0.004489450839074308
1776792.7047730077,0.19,1.84,14.98,0.0,0.19,1.84,14.98,0.03871629112400113,0.0652486491180025,0.001469397211691813,0.004507995861705065
1776792.7050896331,-1.34,0.77,10.34,0.0,-1.34,0.77,10.34,0.038292013006284806,0.0654924507229589,0.001481521437961869,0.004528732439106084
1776792.7053730176,2.72,0.96,1.61,0.0,2.72,0.96,1.61,0.039062818745151134,0.06576449980726466,0.0014925912338681403,0.004547369076556493
1776792.7056279911,-1.27,0.73,7.36,0.0,-1.27,0.73,7.36,0.038739002353977384,0.06595063048880548,0.001502468654293287,0.004564184742037216
1776792.7059952517,0.34,-0.23,19.84,0.0,0.34,-0.23,19.84,0.038863870936911515,0.06586616056505591,0.001516741820443956,0.004588374783605072
1776792.7062740086,1.3,0.69,9.31,0.0,1.3,0.69,9.31,0.039226254976820175,0.06605850286316127,0.0015276764117893304,0.004606789050634203
1776792.7064232435,2.45,-0.34,4.45,0.0,2.45,-0.34,4.45,0.03959188047330824,0.06600776299834252,0.0015335849019750241,0.004616639712315156
1776792.7066050197,2.18,0.11,8.66,0.0,2.18,0.11,8.66,0.03998815267346797,0.06602775838458912,0.0015408537979567849,0.004628641989877852
1776792.706693057,0.15,-2.18,13.37,0.0,0.15,-2.18,13.37,0.04000135825714094,0.06583583723520861,0.0015443754065134325,0.004634437994259783
1776792.7067552062,0.57,1.15,9.16,0.0,0.57,1.15,9.16,0.040036783330142475,0.06590730887372048,0.001546863662605041,0.004638534084133793
1776792.7068153364,1.53,-1.04,3.68,0.0,1.53,-1.04,3.68,0.0401287824497558,0.06584477352444085,0.0015492766120537547,0.004642493339817053
1776792.707019616,1.07,1.23,19.46,0.0,1.07,1.23,19.46,0.04034736157162114,0.06609603737480939,0.0015575187530461922,0.004655995408796645
1776792.707278111,-0.92,-0.3,6.09,0.0,-0.92,-0.3,6.09,0.040109546079765995,0.06601848884485663,0.0015678868741647205,0.004673060864662051
1776792.7073382272,0.57,-0.61,8.39,0.0,0.57,-0.61,8.39,0.04014381229877471,0.06598181797889993,0.0015703001665578337,0.004677027439092679
1776792.7076251304,1.42,1.19,17.24,0.0,1.42,1.19,17.24,0.04055121488869187,0.06632323282537982,0.001581934441184553,0.0046960557889692564
1776792.7076662509,-3.07,-2.37,8.35,0.0,-3.07,-2.37,8.35,0.040424975098576364,0.06622577735222876,0.001583596734465292,0.004698779022921433
1776792.7077378153,0.04,0.0,4.64,0.0,0.04,0.0,4.64,0.040427837676834284,0.06622577735222876,0.001586489930694001,0.004703518434680489
1776792.7077890108,0.34,-1.53,4.9,0.0,0.34,-1.53,4.9,0.04044524414697659,0.06614744823658839,0.0015885605452076556,0.004706904886394371
1776792.7078353432,1.23,1.72,18.54,0.0,1.23,1.72,18.54,0.04050223295809698,0.0662271399074234,0.0015904371095198534,0.004709973346530328
1776792.707891676,1.76,-0.54,0.0,0.0,1.76,-0.54,0.0,0.04060137887718153,0.06619672013679519,0.0015927243032839886,0.004713702400313479
1776792.7079785326,-3.6,3.37,15.59,0.0,-3.6,3.37,15.59,0.04028869533212851,0.06648942667758091,0.001596223639973436,0.004719477441880725
1776792.7080602355,-1.8,4.98,10.42,0.0,-1.8,4.98,10.42,0.04014163023093711,0.06689630679087713,0.0015995033249244918,0.004724943059729354
1776792.708101242,-1.57,2.34,16.43,0.0,-1.57,2.34,16.43,0.040077249871101187,0.06699226223165168,0.0016011467566238139,0.0047276901845374406
1776792.7081575675,0.08,-1.91,2.18,0.0,0.08,-1.91,2.18,0.0400817559077404,0.06688468060689046,0.0016034043798823674,0.00473145749480515
1776792.7082138867,-3.52,1.88,15.59,0.0,-3.52,1.88,15.59,0.039883512423839376,0.0669905606494285,0.0016056505862610923,0.004735230347683452
1776792.7082548814,-0.69,-2.84,9.96,0.0,-0.69,-2.84,9.96,0.039855226064100815,0.06687413563253357,0.0016072844402638614,0.004737971834433753
1776792.7083111373,-0.15,-3.45,1.8,0.0,-0.15,-3.45,1.8,0.039846787687856655,0.06668005297891795,0.0016095260548414027,0.004741722976933862
1776792.708336929,1.0,0.57,11.15,0.0,1.0,0.57,11.15,0.03987257950240741,0.06669475431321188,0.0016105544410175891,0.004743443155668617
1776792.7083528545,1.07,-1.53,9.08,0.0,1.07,-1.53,9.08,0.039889619662426365,0.0666703884769231,0.0016111896984962273,0.00474450490715289
1776792.708610421,1.3,5.36,16.47,0.0,1.3,5.36,16.47,0.04022445620503272,0.06805094529874638,0.0016215501737607764,0.004762032555802834
1776792.708661696,0.73,-0.92,3.71,0.0,0.73,-0.92,3.71,0.04026188687887038,0.06800377239473179,0.0016236145978098886,0.004765519442137406
1776792.708718052,0.96,0.69,12.6,0.0,0.96,0.69,12.6,0.04031598859932269,0.06804265800630689,0.0016258866440025542,0.004769354051368957
1776792.708753979,0.27,3.29,15.4,0.0,0.27,3.29,15.4,0.0403256889339536,0.06816085838014276,0.0016273354316947068,0.0047718028777949464
1776792.708769632,0.54,-2.34,3.91,0.0,0.54,-2.34,3.91,0.04033414153847839,0.06812423042720199,0.001627966780856321,0.004772869224421533
1776792.7087903211,-0.04,0.5,9.88,0.0,-0.04,0.5,9.88,0.04033331397455181,0.06813457497628421,0.0016288012407484377,0.00477427886733161
1776792.7091468999,0.15,-1.8,12.79,0.0,0.15,-1.8,12.79,0.040386800784617614,0.06749273325549457,0.0016432023150333203,0.0047983453406946685
1776792.7093867066,-1.88,-1.99,8.01,0.0,-1.88,-1.99,8.01,0.03993596415966744,0.06701551789185052,0.0016527792274247434,0.004814416111921078
1776792.7096721195,1.68,1.15,4.21,0.0,1.68,1.15,4.21,0.04041545780375595,0.06734374270774444,0.0016643143197698793,0.004833636883705301
1776792.7099522932,0.8,0.34,4.9,0.0,0.8,0.34,4.9,0.040639596786349964,0.0674390017753469,0.0016757004671157836,0.004852531520261654
1776792.7102269519,2.87,-0.61,13.29,0.0,2.87,-0.61,13.29,0.04142786716576663,0.06727145998738726,0.0016870789899621882,0.0048710082099091
1776792.710496949,0.57,-0.42,5.21,0.0,0.57,-0.42,5.21,0.041581765550654355,0.06715806117746999,0.001698305948837672,0.004889140696132615
1776792.7107210113,1.19,-0.88,10.77,0.0,1.19,-0.88,10.77,0.04184839961817485,0.06696088640484979,0.0017076825950640732,0.004904144102440937
1776792.7109755252,0.23,1.61,10.84,0.0,0.23,1.61,10.84,0.04190693782176819,0.0673706538300032,0.001718348494447483,0.004921290872224056
1776792.7111345793,1.3,-0.92,11.45,0.0,1.3,-0.92,11.45,0.042113708104006914,0.06722432409180348,0.0017250468508403943,0.004931983174120802
1776792.7112259588,1.3,-0.88,7.12,0.0,1.3,-0.88,7.12,0.04223250146489587,0.0671439101244325,0.0017289060360617503,0.004938118751618423
1776792.7114031566,2.61,-0.3,10.38,0.0,2.61,-0.3,10.38,0.042694987871218434,0.06709075076738392,0.0017364714964098519,0.004950007088867423
1776792.7117383315,1.8,-0.23,11.91,0.0,1.8,-0.23,11.91,0.043298302593175304,0.06701366055291166,0.0017509839982932992,0.004972468382191751
1776792.712101145,-0.23,-1.49,10.54,0.0,-0.23,-1.49,10.54,0.04321485549444331,0.06647306847851743,0.0017666629300895325,0.004996585707010645
1776792.7124872198,1.38,0.38,7.85,0.0,1.38,0.38,7.85,0.0437476388341747,0.06661977693438549,0.0017835527946717315,0.005022305929653589
1776792.7128937726,-0.34,-1.04,5.75,0.0,-0.34,-1.04,5.75,0.04360941088059915,0.06619696201756615,0.0018012823229736745,0.005049218490220079
1776792.713239126,0.3,2.91,13.56,0.0,0.3,2.91,13.56,0.04371301686158402,0.06720194003311933,0.0018163787562861826,0.005072426899957471
1776792.7136608455,-0.54,0.19,12.79,0.0,-0.54,0.19,12.79,0.04348528826376422,0.06728206676198185,0.0018347173557715475,0.005100801067961406
1776792.7140621287,0.88,-0.92,5.4,0.0,0.88,-0.92,5.4,0.04383841743459924,0.06691288626519978,0.0018523089739526833,0.005127652081648915
1776792.7143922013,0.88,1.19,9.42,0.0,0.88,1.19,9.42,0.04412888131802901,0.06730567265301958,0.0018668747083152354,0.005149867839666697
1776792.7147324295,2.07,-1.68,7.39,0.0,2.07,-1.68,7.39,0.04483315369579939,0.06673408927395956,0.0018821282115791416,0.005172572658860568
1776792.715057692,0.77,0.34,16.01,0.0,0.77,0.34,16.01,0.04508360585663468,0.06684467853978295,0.0018967922200272451,0.005194314729225019
1776792.7153887989,-0.88,1.61,8.08,0.0,-0.88,1.61,8.08,0.044792231847532095,0.06737776053370927,0.0019116232338568676,0.005216623965828497
1776792.7156645267,-0.92,0.54,12.41,0.0,-0.92,0.54,12.41,0.044538562246598294,0.06752665356034432,0.001923903754847367,0.005235242943286157
1776792.7156647963,1.23,0.08,8.73,0.0,1.23,0.08,8.73,0.04453889387659728,0.06752667512977514,0.0019239157633297499,0.00523526114968551
1776792.715665003,3.83,-2.18,5.98,0.0,3.83,-2.18,5.98,0.04453968574292957,0.06752622440690194,0.0019239249720706352,0.005235275110976281
1776792.7156652126,0.65,-0.23,14.86,0.0,0.65,-0.23,14.86,0.044539821948856105,0.0675261762109587,0.0019239343052825065,0.005235289260923045
1776792.7156654005,1.65,0.57,7.05,0.0,1.65,0.57,7.05,0.044540131974499665,0.06752628331072648,0.0019239426741207365,0.005235301948728767
1776792.715665608,-0.73,1.15,12.49,0.0,-0.73,1.15,12.49,0.04453998053446411,0.0675265218806455,0.0019239519140333882,0.005235315957247773
1776792.7156658052,0.3,-0.04,6.51,0.0,0.3,-0.04,6.51,0.04454003969673066,0.06752651399234329,0.0019239606976657242,0.0052353292739865075
1776792.7156660198,-0.19,-2.37,13.21,0.0,-0.19,-2.37,13.21,0.044539998909458506,0.06752600522479062,0.0019239702590607627,0.005235343769784153
1776792.715666227,-1.15,1.57,10.65,0.0,-1.15,1.57,10.65,0.044539760607294726,0.067526330559049,0.0019239794885575689,0.00523535776254127
1776792.7156769084,2.14,0.3,11.53,0.0,2.14,0.3,11.53,0.04456261867191641,0.06752953496063148,0.0019244554769768747,0.005236079068370243
1776792.7159717777,0.77,0.54,8.35,0.0,0.77,0.54,8.35,0.04478966803289948,0.06768876438261962,0.0019376625750359836,0.005256038406940123
1776792.7162712642,1.84,-3.48,7.09,0.0,1.84,-3.48,7.09,0.045340723311528545,0.06664655113825597,0.0019512415124912433,0.005275998153574448
1776792.7165767418,1.0,0.65,8.93,0.0,1.0,0.65,8.93,0.045646200841292714,0.06684511153260268,0.001965185401167361,0.005296417833122238
1776792.716911844,1.38,-1.15,9.54,0.0,1.38,-1.15,9.54,0.04610864188056437,0.06645974399987631,0.001980636508609863,0.005318688639705593
1776792.7172620853,-0.42,3.75,10.07,0.0,-0.42,3.75,10.07,0.04596154052764175,0.0677731489366854,0.0019967341390718244,0.005342425596611337
1776792.7175888277,1.19,-1.38,6.78,0.0,1.19,-1.38,6.78,0.04635036400519309,0.06732224439969309,0.002011878769087177,0.00536442262953911
1776792.7179249525,-0.23,0.23,16.82,0.0,-0.23,0.23,16.82,0.04627305530244482,0.06739955310244136,0.0020274322902942682,0.005387077290478948
1776792.7182447782,-0.69,0.27,8.85,0.0,-0.69,0.27,8.85,0.046052375556901066,0.06748590604634978,0.002042161024380619,0.005408661018847205
1776792.718600364,0.73,0.0,9.23,0.0,0.73,0.0,9.23,0.04631195312598717,0.06748590604634978,0.002058628893164281,0.005432658042736363
1776792.718916486,1.61,0.23,3.91,0.0,1.61,0.23,3.91,0.04682090967660767,0.06755861412500985,0.002073430016571685,0.00545401481243187
1776792.7189190297,1.27,-1.19,17.39,0.0,1.27,-1.19,17.39,0.0468241401435807,0.06755558715201937,0.002073549121956153,0.005454186651875286
1776792.7189192604,-0.88,1.68,9.81,0.0,-0.88,1.68,9.81,0.04682393709663298,0.06755597478710137,0.002073559925885139,0.005454202239414468
1776792.7189194665,2.72,-1.49,4.41,0.0,2.72,-1.49,4.41,0.04682449756655838,0.06755566776497313,0.002073569574312587,0.005454216159605671
1776792.7189196693,1.38,-0.19,8.01,0.0,1.38,-0.19,8.01,0.04682477742433544,0.0675556292338299,0.002073579070166298,0.005454229859582646
1776792.7189198802,2.91,-0.65,18.08,0.0,2.91,-0.65,18.08,0.04682539127301421,0.06755549211986386,0.0020735889477280045,0.0054542441100464195
1776792.718920091,-1.61,0.3,12.26,0.0,-1.61,0.3,12.26,0.04682505202712487,0.06755555533338362,0.002073598814315842,0.0054542583447945246
1776792.7189202935,1.3,-1.34,3.75,0.0,1.3,-1.34,3.75,0.04682531535858284,0.06755528389941924,0.0020736082993762753,0.005454272028972527
1776792.7189204947,0.61,0.34,10.5,0.0,0.61,0.34,10.5,0.04682543806964527,0.06755535229574912,0.002073617719047184,0.005454285618790647
1776792.7189207026,2.18,-0.46,16.24,0.0,2.18,-0.46,16.24,0.0468258913303725,0.06755525665357733,0.002073627454981843,0.00545429966472861
1776792.7189209238,-2.53,-1.11,16.55,0.0,-2.53,-1.11,16.55,0.04682533172192048,0.06755501113366359,0.002073637812235361,0.005454314607161498
1776792.7189211252,0.92,-0.92,4.18,0.0,0.92,-0.92,4.18,0.0468255170085467,0.06755482584703737,0.002073647242824565,0.005454328212602548
1776792.7189213356,1.0,-1.19,10.88,0.0,1.0,-1.19,10.88,0.046825727487448565,0.06755457537714415,0.002073657098652265,0.00545434243141539
1776792.718921545,1.88,-2.61,12.6,0.0,1.88,-2.61,12.6,0.04682612099917602,0.0675540290656502,0.002073666900050012,0.005454356571470004
1776792.7189217645,-1.0,-0.46,18.43,0.0,-1.0,-0.46,18.43,0.04682590143987905,0.0675539280683736,0.002073677181112012,0.005454371403562958
1776792.718921965,0.5,-0.11,1.38,0.0,0.5,-0.11,1.38,0.046826001673471146,0.06755390601698334,0.0020736865681887143,0.005454384945904278
1776792.7189221669,1.19,-1.11,9.08,0.0,1.19,-1.11,9.08,0.04682624189183112,0.06755368194775681,0.0020736960207290767,0.0054543985825720835
1776792.7189223783,1.57,-0.19,14.67,0.0,1.57,-0.19,14.67,0.04682657380588349,0.06755364177981417,0.002073705920345555,0.005454412864102654
1776792.7189225873,-2.26,0.46,9.92,0.0,-2.26,0.46,9.92,0.04682610128074881,0.06755373795749645,0.0020737157108366234,0.005454426988367754
1776792.71892279,1.49,-0.57,1.0,0.0,1.49,-0.57,1.0,0.04682640309911218,0.06755362249678026,0.0020737251961173925,0.0054544406722092185
1776792.7189229894,0.46,2.07,10.61,0.0,0.46,2.07,10.61,0.04682649488560852,0.0675540355360138,0.002073734539682396,0.0054544541516619045
1776792.71892324,0.92,0.73,15.82,0.0,0.92,0.73,15.82,0.04682672536931928,0.06755421841982778,0.002073746270983946,0.005454471075734665
1776792.7189234726,-1.19,-0.69,9.04,0.0,-1.19,-0.69,9.04,0.0468264485779218,0.0675540579273368,0.0020737571627134762,0.005454486788660799
1776792.7189236684,0.8,0.34,4.25,0.0,0.8,0.34,4.25,0.046826605226378853,0.06755412450293105,0.002073766331857798,0.005454500016472512
1776792.71892386,0.3,0.04,8.85,0.0,0.3,0.04,8.85,0.04682666271226477,0.06755413216771584,0.0020737753047651002,0.005454512961169629
1776792.7189240714,1.42,-0.46,13.91,0.0,1.42,-0.46,13.91,0.04682696291478348,0.0675540349190126,0.00207378520446384,0.005454527242783313
1776792.7189242754,-0.34,0.77,5.02,0.0,-0.34,0.77,5.02,0.04682689356850457,0.06755419196793835,0.002073794755260374,0.005454541021112247
1776792.718924477,0.19,-0.92,7.05,0.0,0.19,-0.92,7.05,0.046826931878458676,0.06755400646710794,0.0020738041970372752,0.005454554642116918
1776792.718924681,-0.3,2.45,9.35,0.0,-0.3,2.45,9.35,0.04682687069056552,0.06755450616823534,0.0020738137478291435,0.005454568420509936
1776792.7189248933,3.68,-1.11,12.72,0.0,3.68,-1.11,12.72,0.046827652107458526,0.06755427046911816,0.002073823691285235,0.0054545827650882344
1776792.7189250952,0.61,-0.3,1.99,0.0,0.61,-0.3,1.99,0.046827775244601036,0.06755420990986774,0.0020738331441351263,0.005454596401862616
1776792.7189253063,1.23,-0.11,17.81,0.0,1.23,-0.11,17.81,0.046828034992795406,0.06755418668035443,0.0020738430331575125,0.005454610667779699
1776792.7189255091,-0.92,0.61,0.88,0.0,-0.92,0.61,0.88,0.046827848420944035,0.06755431038560371,0.002073852529634008,0.005454624367489218
1776792.7189257105,1.23,2.3,15.67,0.0,1.23,2.3,15.67,0.04682809614110735,0.06755477360216926,0.002073861960742645,0.005454637972919746
1776792.718925912,-0.96,3.41,7.24,0.0,-0.96,3.41,7.24,0.046827902798540856,0.0675554603710773,0.002073871391812343,0.005454651578488588
1776792.718926124,1.72,-1.19,15.59,0.0,1.72,-1.19,15.59,0.04682826762553301,0.06755520796170483,0.002073881324496079,0.005454665907537033
1776792.7189263247,0.08,-0.27,3.87,0.0,0.08,-0.27,3.87,0.046828283681534195,0.06755515377270083,0.0020738907229333084,0.005454679465857397
1776792.7189265436,1.65,-1.53,14.1,0.0,1.65,-1.53,14.1,0.0468286448018625,0.06755481891566913,0.0020739009718882084,0.005454694250959449
1776792.7189267497,-0.34,1.0,6.55,0.0,-0.34,1.0,6.55,0.046828574743121826,0.06755502497078876,0.0020739106211557796,0.005454708171018201
1776792.7189269685,-3.41,-0.8,15.05,0.0,-3.41,-0.8,15.05,0.046827828427776656,0.06755484988214473,0.0020739208699320074,0.00545472295612703
1776792.718927161,3.56,0.54,2.64,0.0,3.56,0.54,2.64,0.04682851390913125,0.06755495385965357,0.002073929886806487,0.005454735963897053
1776792.718927371,1.49,-1.0,14.59,0.0,1.49,-1.0,14.59,0.04682882682885971,0.067554743846413,0.002073939721480162,0.005454750151287724
1776792.7189275837,-0.15,-0.15,5.94,0.0,-0.15,-0.15,5.94,0.04682879494270306,0.06755471196025635,0.0020739496760821033,0.005454764511688577
1776792.718927805,-2.76,-0.61,14.14,0.0,-2.76,-0.61,14.14,0.04682818381814283,0.06755457689287166,0.00207396004486951,0.005454779469754191
1776792.718928007,2.26,0.34,-1.34,0.0,2.26,0.34,-1.34,0.04682864003116261,0.06755464552668879,0.002073969497893971,0.0054547931066165085
1776792.7189282172,-0.61,1.53,18.66,0.0,-0.61,1.53,18.66,0.046828511781059165,0.06755496720317775,0.002073979343404594,0.005454807309782954
1776792.7189284614,-0.27,3.14,8.85,0.0,-0.27,3.14,8.85,0.046828445836435965,0.06755573411472166,0.0020739907807535416,0.005454823809551219
1776792.7189286817,0.88,-0.34,9.96,0.0,0.88,-0.34,9.96,0.04682863966329019,0.06755565922707343,0.002074001095126171,0.005454838689211348
1776792.718928893,0.3,-0.3,-1.34,0.0,0.3,-0.3,-1.34,0.046828703086357525,0.06755559580400611,0.002074010995192801,0.005454852971155019
1776792.718929104,-1.0,0.34,15.32,0.0,-1.0,0.34,15.32,0.046828492141794374,0.06755566752515758,0.0020740208734086186,0.005454867221655793
1776792.718929361,-0.46,3.75,13.18,0.0,-0.46,3.75,13.18,0.0468283739010803,0.06755663144402231,0.0020740329104094206,0.0054548845867521895
1776792.7189295604,-0.23,0.15,7.09,0.0,-0.23,0.15,7.09,0.04682832806138318,0.06755666133947695,0.0020740422434371384,0.005454898050999557
1776792.718929759,0.19,-0.46,4.14,0.0,0.19,-0.46,4.14,0.046828365796245594,0.067556569981389,0.0020740515437631412,0.005454911468040996
1776792.718930219,0.46,-0.04,9.65,0.0,0.46,-0.04,9.65,0.04682857742998745,0.06755655157845492,0.002074073088343722,0.005454942549010121
1776792.7189304882,0.42,-0.23,9.65,0.0,0.42,-0.23,9.65,0.04682869047392156,0.06755648967344338,0.002074085692389913,0.005454960731989567
1776792.7189307082,0.54,-0.08,9.77,0.0,0.54,-0.08,9.77,0.04682880928739902,0.06755647207144672,0.0020740959958967216,0.005454975596099514
1776792.7189309117,0.5,-0.23,9.73,0.0,0.5,-0.23,9.73,0.0468289110343903,0.06755642526783073,0.0020741055252983267,0.005454989343425539
1776792.7189311488,0.46,-0.15,9.65,0.0,0.46,-0.15,9.65,0.04682902006432411,0.06755638971459145,0.002074116624787366,0.005455005355748798
1776792.7191245153,0.42,-0.08,9.69,0.0,0.42,-0.08,9.69,0.04691023401450362,0.06754092039074773,0.0020831874948068025,0.005468065510376639
1776792.7194143052,0.38,-0.15,9.69,0.0,0.38,-0.15,9.69,0.04702035416383293,0.06749745191074932,0.002096813516970061,0.005487625587965479
1776792.7196384955,0.46,-0.11,9.69,0.0,0.46,-0.11,9.69,0.04712348170112815,0.06747279097791786,0.0021073781443974823,0.005502752333113279
1776792.719924227,0.46,-0.15,9.65,0.0,0.46,-0.15,9.65,0.047254918250255254,0.06742993123363729,0.0021208803691455187,0.005522019197176816
1776792.7203052002,0.46,-0.19,9.65,0.0,0.46,-0.19,9.65,0.04743016587570307,0.06735754634486536,0.0021389499864157635,0.005547680610335356
1776792.7206141478,0.46,-0.19,9.69,0.0,0.46,-0.19,9.69,0.04757228178903458,0.0672988462937067,0.0021536473304933994,0.005568472429916198
1776792.7209139736,0.42,-0.19,9.77,0.0,0.42,-0.19,9.77,0.04769820862449703,0.06724187939194987,0.0021679484839917584,0.005588633280112331
1776792.7212095095,0.5,-0.08,9.69,0.0,0.5,-0.08,9.69,0.04784597657155243,0.067218236520421,0.0021820886874574365,0.005608498681742945
1776792.721423694,0.5,-0.23,9.69,0.0,0.5,-0.23,9.69,0.047953068772330854,0.06716897410806293,0.0021923594867952526,0.005622885228265468
1776792.7216631018,0.42,-0.15,9.61,0.0,0.42,-0.15,9.61,0.048053620080463565,0.06713306292658695,0.002203863901937164,0.005638957412304096
1776792.7218707346,0.46,-0.23,9.69,0.0,0.46,-0.23,9.69,0.0481491311592981,0.06708530738716968,0.002213861239897969,0.005652886521179085
1776792.721965208,0.38,-0.19,9.73,0.0,0.38,-0.19,9.73,0.048185031036846314,0.06706735744839558,0.0022184134417766,0.005659222599915611
1776792.7219654792,0.42,-0.08,9.65,0.0,0.42,-0.08,9.65,0.048185144960880257,0.06706733574857959,0.002218426511886338,0.005659240791776168
1776792.7219656848,0.46,-0.15,9.65,0.0,0.46,-0.15,9.65,0.0481852395320311,0.06706730491016084,0.0022184364182636336,0.005659254580107058
1776792.721965885,0.38,-0.11,9.58,0.0,0.38,-0.11,9.58,0.048185315621085446,0.06706728288438195,0.0022184460666191575,0.00565926800928109
1776792.7219660825,0.46,-0.19,9.65,0.0,0.46,-0.19,9.65,0.048185406443662926,0.06706724537070864,0.0022184555803643966,0.005659281251063892
1776792.7220259334,0.42,-0.27,9.73,0.0,0.42,-0.27,9.73,0.0482105438550934,0.06705108560621761,0.002221341028640998,0.005663294324220425
1776792.7222031555,0.46,-0.04,9.69,0.0,0.46,-0.04,9.69,0.04829206600785253,0.067043996723369,0.002229899448602186,0.005675176000182306
1776792.7223634182,0.42,-0.23,9.58,0.0,0.42,-0.23,9.58,0.04835937633644788,0.06700713630532869,0.002237649652201881,0.005685914743903602
1776792.7224310637,0.46,-0.19,9.58,0.0,0.46,-0.19,9.58,0.04839049324393271,0.06699428366962844,0.002240923048944091,0.0056904466024404726
1776792.7225038041,0.42,-0.23,9.69,0.0,0.42,-0.23,9.69,0.04842104424722491,0.06697755335830176,0.0022444452191398264,0.005695318582090837
1776792.7226732003,0.38,-0.23,9.73,0.0,0.38,-0.23,9.73,0.048485414790920896,0.06693859223974892,0.0022526584625909237,0.005706657723082196
1776792.7228532785,0.42,-0.19,9.61,0.0,0.42,-0.19,9.61,0.048561047636903804,0.06690437738085189,0.0022614032488687584,0.00571870574324893
1776792.7229135477,0.34,-0.27,9.58,0.0,0.34,-0.27,9.58,0.04858153914567081,0.06688810471212515,0.0022643312166196945,0.005722737032025745
1776792.7230784188,0.42,-0.11,9.58,0.0,0.42,-0.11,9.58,0.04865078500937668,0.06686996889067838,0.002272352325257654,0.005733761957625316
1776792.7231287053,0.46,-0.19,9.61,0.0,0.46,-0.19,9.61,0.048673916812986114,0.0668604144500571,0.0022747999676155234,0.005737124135834672
1776792.7232816142,0.46,-0.08,9.69,0.0,0.46,-0.08,9.69,0.04874425493646411,0.06684818173293049,0.002282253401142836,0.00574734582205426
1776792.7233128364,0.46,-0.19,9.69,0.0,0.46,-0.19,9.69,0.04875861711334435,0.06684224952943647,0.0022837757487154833,0.0057494327790342924
1776792.7233136992,0.42,-0.23,9.61,0.0,0.42,-0.23,9.61,0.048758979518897815,0.06684205106925244,0.0022838178213939564,0.005749490455059321
1776792.7233142373,0.46,-0.15,9.65,0.0,0.46,-0.15,9.65,0.04875922703184186,0.06684197035850982,0.0022838440573501127,0.005749526420826428
1776792.723317593,0.42,-0.19,9.73,0.0,0.42,-0.19,9.73,0.04876063646282999,0.06684133275877709,0.0022840076877120932,0.005749750726173281
1776792.7233199172,0.38,-0.08,9.65,0.0,0.38,-0.08,9.65,0.048761519626714274,0.06684114682953829,0.0022841210151149276,0.005749906072717659
1776792.7233201407,0.42,-0.19,9.61,0.0,0.42,-0.19,9.61,0.04876161350402979,0.06684110436122889,0.002284131914184871,0.005749921012868716
1776792.723320343,0.38,-0.3,9.58,0.0,0.38,-0.3,9.58,0.04876169038936494,0.0668410436622801,0.0022841417801293656,0.005749934536805673
1776792.7233205428,0.42,-0.11,9.61,0.0,0.42,-0.11,9.61,0.04876177429221569,0.06684102168772395,0.002284151521205248,0.005749947889549164
1776792.723320743,0.46,-0.23,9.69,0.0,0.46,-0.23,9.69,0.04876186640001832,0.06684097563382263,0.002284161285006044,0.00574996127340871
